local_ts,esp_ts,gyro_x,gyro_y,gyro_z
2026-01-29 16:47:57.576,2026-01-29T09:47:57.063Z,0.0117,0.0078,-0.0059
2026-01-29 16:47:57.576,2026-01-29T09:47:57.073Z,0.0137,0.0039,-0.0078
2026-01-29 16:47:57.577,2026-01-29T09:47:57.083Z,0.0078,-0.0020,-0.0078
2026-01-29 16:47:57.605,2026-01-29T09:47:57.093Z,0.0078,-0.0137,-0.0059
2026-01-29 16:47:57.606,2026-01-29T09:47:57.103Z,0.0059,-0.0176,-0.0039
2026-01-29 16:47:57.607,2026-01-29T09:47:57.113Z,0.0098,-0.0117,-0.0020
2026-01-29 16:47:57.635,2026-01-29T09:47:57.123Z,0.0020,-0.0059,0.0000
2026-01-29 16:47:57.636,2026-01-29T09:47:57.133Z,0.0000,0.0078,0.0020
2026-01-29 16:47:57.637,2026-01-29T09:47:57.143Z,0.0000,0.0176,0.0020
2026-01-29 16:47:57.665,2026-01-29T09:47:57.153Z,0.0059,0.0254,0.0000
2026-01-29 16:47:57.667,2026-01-29T09:47:57.163Z,0.0137,0.0586,0.0020
2026-01-29 16:47:57.667,2026-01-29T09:47:57.173Z,0.0137,0.0938,0.0020
2026-01-29 16:47:57.695,2026-01-29T09:47:57.183Z,0.0254,0.1309,0.0059
2026-01-29 16:47:57.697,2026-01-29T09:47:57.193Z,0.0254,0.1816,0.0195
2026-01-29 16:47:57.697,2026-01-29T09:47:57.203Z,0.0078,0.1914,0.0352
2026-01-29 16:47:57.755,2026-01-29T09:47:57.213Z,0.0078,0.1953,0.0488
2026-01-29 16:47:57.785,2026-01-29T09:47:57.223Z,0.0059,0.1855,0.0469
2026-01-29 16:47:57.786,2026-01-29T09:47:57.233Z,0.0059,0.1602,0.0430
2026-01-29 16:47:57.786,2026-01-29T09:47:57.243Z,-0.0078,0.1484,0.0469
2026-01-29 16:47:57.788,2026-01-29T09:47:57.253Z,-0.0195,0.1152,0.0508
2026-01-29 16:47:57.788,2026-01-29T09:47:57.263Z,-0.0273,0.0859,0.0527
2026-01-29 16:47:57.788,2026-01-29T09:47:57.273Z,-0.0332,0.0508,0.0449
2026-01-29 16:47:57.816,2026-01-29T09:47:57.283Z,-0.0332,0.0332,0.0410
2026-01-29 16:47:57.817,2026-01-29T09:47:57.293Z,-0.0312,0.0488,0.0410
2026-01-29 16:47:57.817,2026-01-29T09:47:57.303Z,-0.0215,0.0801,0.0352
2026-01-29 16:47:57.818,2026-01-29T09:47:57.313Z,-0.0078,0.1309,0.0410
2026-01-29 16:47:57.818,2026-01-29T09:47:57.323Z,-0.0039,0.1582,0.0391
2026-01-29 16:47:57.848,2026-01-29T09:47:57.333Z,0.0020,0.1270,0.0352
2026-01-29 16:47:57.848,2026-01-29T09:47:57.343Z,0.0039,0.1016,0.0234
2026-01-29 16:47:57.878,2026-01-29T09:47:57.353Z,0.0098,0.1113,0.0215
2026-01-29 16:47:57.878,2026-01-29T09:47:57.363Z,0.0215,0.1445,0.0273
2026-01-29 16:47:57.878,2026-01-29T09:47:57.373Z,0.0293,0.1914,0.0312
2026-01-29 16:47:57.879,2026-01-29T09:47:57.383Z,0.0371,0.2285,0.0410
2026-01-29 16:47:57.906,2026-01-29T09:47:57.393Z,0.0312,0.2090,0.0430
2026-01-29 16:47:57.907,2026-01-29T09:47:57.403Z,0.0332,0.1816,0.0430
2026-01-29 16:47:57.907,2026-01-29T09:47:57.413Z,0.0312,0.1680,0.0430
2026-01-29 16:47:57.935,2026-01-29T09:47:57.423Z,0.0332,0.1543,0.0391
2026-01-29 16:47:57.938,2026-01-29T09:47:57.433Z,0.0273,0.1680,0.0430
2026-01-29 16:47:57.938,2026-01-29T09:47:57.443Z,0.0195,0.1816,0.0430
2026-01-29 16:47:57.996,2026-01-29T09:47:57.453Z,0.0195,0.1641,0.0430
2026-01-29 16:47:58.055,2026-01-29T09:47:57.463Z,0.0293,0.1230,0.0410
2026-01-29 16:47:58.057,2026-01-29T09:47:57.473Z,0.0195,0.0762,0.0430
2026-01-29 16:47:58.057,2026-01-29T09:47:57.483Z,0.0137,0.0664,0.0488
2026-01-29 16:47:58.177,2026-01-29T09:47:57.493Z,0.0293,0.0781,0.0449
2026-01-29 16:47:58.178,2026-01-29T09:47:57.503Z,0.0254,0.1113,0.0469
2026-01-29 16:47:58.178,2026-01-29T09:47:57.513Z,0.0273,0.1367,0.0488
2026-01-29 16:47:58.206,2026-01-29T09:47:57.523Z,0.0293,0.1445,0.0527
2026-01-29 16:47:58.295,2026-01-29T09:47:57.533Z,0.0332,0.1270,0.0605
2026-01-29 16:47:58.386,2026-01-29T09:47:57.543Z,0.0293,0.0977,0.0605
2026-01-29 16:47:58.388,2026-01-29T09:47:57.553Z,0.0352,0.0449,0.0605
2026-01-29 16:47:58.388,2026-01-29T09:47:57.563Z,0.0371,0.0059,0.0527
2026-01-29 16:47:58.389,2026-01-29T09:47:57.573Z,0.0488,0.0020,0.0488
2026-01-29 16:47:58.389,2026-01-29T09:47:57.583Z,0.0605,0.0234,0.0566
2026-01-29 16:47:58.389,2026-01-29T09:47:57.593Z,0.0625,0.0391,0.0684
2026-01-29 16:47:58.448,2026-01-29T09:47:57.603Z,0.0684,0.0605,0.0703
2026-01-29 16:47:58.448,2026-01-29T09:47:57.613Z,0.0742,0.0762,0.0762
2026-01-29 16:47:58.449,2026-01-29T09:47:57.623Z,0.0840,0.0762,0.0742
2026-01-29 16:47:58.536,2026-01-29T09:47:57.633Z,0.0762,0.0566,0.0762
2026-01-29 16:47:58.537,2026-01-29T09:47:57.643Z,0.0703,0.0156,0.0762
2026-01-29 16:47:58.597,2026-01-29T09:47:57.653Z,0.0801,-0.0078,0.0723
2026-01-29 16:47:58.597,2026-01-29T09:47:57.663Z,0.0801,-0.0195,0.0703
2026-01-29 16:47:58.597,2026-01-29T09:47:57.693Z,0.1016,-0.0059,0.0762
2026-01-29 16:47:58.626,2026-01-29T09:47:57.703Z,0.1094,-0.0156,0.0801
2026-01-29 16:47:58.626,2026-01-29T09:47:57.723Z,0.1328,-0.0020,0.0840
2026-01-29 16:47:58.866,2026-01-29T09:47:57.813Z,0.2168,0.0918,0.1211
2026-01-29 16:47:58.867,2026-01-29T09:47:57.903Z,0.3359,0.0898,0.1191
2026-01-29 16:47:58.867,2026-01-29T09:47:57.913Z,0.3516,0.1016,0.1191
2026-01-29 16:47:58.926,2026-01-29T09:47:57.923Z,0.3652,0.1055,0.1152
2026-01-29 16:47:58.927,2026-01-29T09:47:57.933Z,0.3809,0.1328,0.1074
2026-01-29 16:47:58.927,2026-01-29T09:47:57.943Z,0.3965,0.1602,0.1035
2026-01-29 16:47:58.928,2026-01-29T09:47:57.953Z,0.4141,0.1836,0.1035
2026-01-29 16:47:58.928,2026-01-29T09:47:57.963Z,0.4277,0.1855,0.1016
2026-01-29 16:47:58.928,2026-01-29T09:47:57.973Z,0.4336,0.1602,0.0938
2026-01-29 16:47:58.929,2026-01-29T09:47:57.983Z,0.4512,0.1504,0.0918
2026-01-29 16:47:58.930,2026-01-29T09:47:58.053Z,0.5195,0.2715,0.0840
2026-01-29 16:47:58.930,2026-01-29T09:47:58.063Z,0.5195,0.2559,0.0781
2026-01-29 16:47:58.956,2026-01-29T09:47:58.113Z,0.5625,0.2891,0.0684
2026-01-29 16:47:58.957,2026-01-29T09:47:58.123Z,0.5781,0.2891,0.0547
2026-01-29 16:47:58.985,2026-01-29T09:47:58.133Z,0.5918,0.2148,0.0215
2026-01-29 16:47:58.987,2026-01-29T09:47:58.143Z,0.5859,0.1621,0.0098
2026-01-29 16:47:58.988,2026-01-29T09:47:58.153Z,0.5645,0.0527,-0.0039
2026-01-29 16:47:58.988,2026-01-29T09:47:58.383Z,0.0176,-1.0879,0.0938
2026-01-29 16:47:58.988,2026-01-29T09:47:58.393Z,-0.1445,-1.9316,0.1289
2026-01-29 16:47:58.989,2026-01-29T09:47:58.403Z,-0.3867,-2.8164,0.0586
2026-01-29 16:47:58.989,2026-01-29T09:47:58.413Z,-0.6562,-3.4297,-0.0215
2026-01-29 16:47:58.989,2026-01-29T09:47:58.443Z,-0.7812,-3.8379,0.2207
2026-01-29 16:47:58.992,2026-01-29T09:47:58.453Z,-0.7207,-3.4902,0.3828
2026-01-29 16:47:59.018,2026-01-29T09:47:58.463Z,-0.6328,-2.9160,0.5430
2026-01-29 16:47:59.105,2026-01-29T09:47:58.473Z,-0.5469,-2.3535,0.6641
2026-01-29 16:47:59.107,2026-01-29T09:47:58.483Z,-0.5156,-1.6406,0.7520
2026-01-29 16:47:59.107,2026-01-29T09:47:58.493Z,-0.4980,-0.7812,0.9609
2026-01-29 16:47:59.107,2026-01-29T09:47:58.503Z,-0.4062,-0.2031,1.2168
2026-01-29 16:47:59.110,2026-01-29T09:47:58.513Z,-0.4707,0.0664,1.4199
2026-01-29 16:47:59.110,2026-01-29T09:47:58.523Z,-0.7168,0.3359,1.5488
2026-01-29 16:47:59.139,2026-01-29T09:47:58.533Z,-0.7402,0.5234,1.3125
2026-01-29 16:47:59.139,2026-01-29T09:47:58.543Z,-0.1211,0.5527,0.5625
2026-01-29 16:47:59.140,2026-01-29T09:47:58.553Z,0.5371,0.3301,-0.1816
2026-01-29 16:47:59.168,2026-01-29T09:47:58.563Z,0.6250,-0.2227,-0.5664
2026-01-29 16:47:59.169,2026-01-29T09:47:58.573Z,0.5117,-0.8242,-0.3770
2026-01-29 16:47:59.169,2026-01-29T09:47:58.583Z,0.1992,-0.6973,0.0938
2026-01-29 16:47:59.169,2026-01-29T09:47:58.593Z,-0.1035,-0.4551,0.4219
2026-01-29 16:47:59.169,2026-01-29T09:47:58.603Z,-0.2266,-0.5566,0.4258
2026-01-29 16:47:59.169,2026-01-29T09:47:58.613Z,-0.1953,-0.7480,0.2539
2026-01-29 16:47:59.197,2026-01-29T09:47:58.623Z,-0.0742,-0.6855,0.0508
2026-01-29 16:47:59.198,2026-01-29T09:47:58.633Z,0.0195,-0.2227,-0.0742
2026-01-29 16:47:59.198,2026-01-29T09:47:58.643Z,0.0449,0.2773,-0.1055
2026-01-29 16:47:59.198,2026-01-29T09:47:58.653Z,0.0078,0.7383,-0.0527
2026-01-29 16:47:59.198,2026-01-29T09:47:58.663Z,-0.0449,1.1426,0.0820
2026-01-29 16:47:59.228,2026-01-29T09:47:58.673Z,-0.0332,1.4199,0.2227
2026-01-29 16:47:59.228,2026-01-29T09:47:58.683Z,0.0000,1.5195,0.3184
2026-01-29 16:47:59.228,2026-01-29T09:47:58.693Z,0.0020,1.4492,0.3203
2026-01-29 16:47:59.228,2026-01-29T09:47:58.703Z,0.0156,1.2188,0.2578
2026-01-29 16:47:59.229,2026-01-29T09:47:58.713Z,0.0371,0.8574,0.1836
2026-01-29 16:47:59.255,2026-01-29T09:47:58.723Z,0.0117,0.4414,0.1211
2026-01-29 16:47:59.257,2026-01-29T09:47:58.733Z,-0.0312,0.0645,0.0996
2026-01-29 16:47:59.258,2026-01-29T09:47:58.743Z,-0.0586,-0.3359,0.0723
2026-01-29 16:47:59.258,2026-01-29T09:47:58.753Z,-0.0918,-0.6719,0.0469
2026-01-29 16:47:59.258,2026-01-29T09:47:58.763Z,-0.1133,-0.9023,0.0371
2026-01-29 16:47:59.288,2026-01-29T09:47:58.773Z,-0.1152,-1.0156,0.0410
2026-01-29 16:47:59.289,2026-01-29T09:47:58.783Z,-0.1289,-1.0352,0.0332
2026-01-29 16:47:59.289,2026-01-29T09:47:58.793Z,-0.1504,-0.8945,0.0352
2026-01-29 16:47:59.316,2026-01-29T09:47:58.803Z,-0.1406,-0.6484,0.0410
2026-01-29 16:47:59.405,2026-01-29T09:47:58.813Z,-0.1523,-0.3945,0.0469
2026-01-29 16:47:59.496,2026-01-29T09:47:58.823Z,-0.1621,-0.0781,0.0898
2026-01-29 16:47:59.496,2026-01-29T09:47:58.833Z,-0.1035,0.1621,0.1328
2026-01-29 16:47:59.498,2026-01-29T09:47:58.843Z,-0.0547,0.1465,0.1133
2026-01-29 16:47:59.499,2026-01-29T09:47:58.853Z,-0.0918,0.0918,0.0840
2026-01-29 16:47:59.499,2026-01-29T09:47:58.863Z,-0.0840,0.1523,0.0645
2026-01-29 16:47:59.501,2026-01-29T09:47:58.873Z,-0.0508,0.0566,-0.0137
2026-01-29 16:47:59.501,2026-01-29T09:47:58.883Z,-0.0742,0.0742,-0.0898
2026-01-29 16:47:59.556,2026-01-29T09:47:58.893Z,-0.0918,0.1250,-0.1426
2026-01-29 16:47:59.557,2026-01-29T09:47:58.903Z,-0.1172,0.3965,-0.1641
2026-01-29 16:47:59.557,2026-01-29T09:47:58.913Z,-0.0566,0.9551,-0.1328
2026-01-29 16:47:59.645,2026-01-29T09:47:58.923Z,0.0215,1.4629,-0.0996
2026-01-29 16:47:59.647,2026-01-29T09:47:58.933Z,0.0352,1.8223,-0.0977
2026-01-29 16:47:59.647,2026-01-29T09:47:58.943Z,0.0039,2.1152,-0.1055
2026-01-29 16:47:59.647,2026-01-29T09:47:58.953Z,0.0039,2.2344,-0.1328
2026-01-29 16:47:59.648,2026-01-29T09:47:58.963Z,0.0391,2.0977,-0.1738
2026-01-29 16:47:59.649,2026-01-29T09:47:58.973Z,0.0430,1.8105,-0.2051
2026-01-29 16:47:59.705,2026-01-29T09:47:58.983Z,0.0078,1.4766,-0.2285
2026-01-29 16:47:59.707,2026-01-29T09:47:59.013Z,-0.1055,0.6895,-0.2402
2026-01-29 16:47:59.707,2026-01-29T09:47:59.023Z,-0.1250,0.5508,-0.1992
2026-01-29 16:47:59.708,2026-01-29T09:47:59.033Z,-0.1465,0.5508,-0.1543
2026-01-29 16:47:59.708,2026-01-29T09:47:59.043Z,-0.1113,0.5176,-0.1660
2026-01-29 16:47:59.709,2026-01-29T09:47:59.053Z,-0.0508,0.3438,-0.2188
2026-01-29 16:47:59.709,2026-01-29T09:47:59.063Z,-0.0449,0.1738,-0.2617
2026-01-29 16:47:59.712,2026-01-29T09:47:59.073Z,-0.0977,0.0938,-0.2754
2026-01-29 16:47:59.796,2026-01-29T09:47:59.083Z,-0.1191,0.0547,-0.2363
2026-01-29 16:48:00.005,2026-01-29T09:47:59.093Z,-0.1094,0.0312,-0.1719
2026-01-29 16:48:00.007,2026-01-29T09:47:59.103Z,-0.1172,0.0410,-0.1367
2026-01-29 16:48:00.008,2026-01-29T09:47:59.163Z,-0.1250,-0.1211,-0.0703
2026-01-29 16:48:00.008,2026-01-29T09:47:59.173Z,-0.1211,-0.0723,-0.0469
2026-01-29 16:48:00.037,2026-01-29T09:47:59.183Z,-0.1445,-0.0273,-0.0449
2026-01-29 16:48:00.038,2026-01-29T09:47:59.193Z,-0.2012,-0.0449,-0.0840
2026-01-29 16:48:00.038,2026-01-29T09:47:59.203Z,-0.2324,0.0176,-0.0918
2026-01-29 16:48:00.039,2026-01-29T09:47:59.213Z,-0.2168,0.1035,-0.0449
2026-01-29 16:48:00.039,2026-01-29T09:47:59.223Z,-0.2559,0.1719,-0.0098
2026-01-29 16:48:00.039,2026-01-29T09:47:59.233Z,-0.3047,0.2461,-0.0020
2026-01-29 16:48:00.039,2026-01-29T09:47:59.243Z,-0.2832,0.3008,-0.0059
2026-01-29 16:48:00.039,2026-01-29T09:47:59.253Z,-0.2520,0.3027,-0.0117
2026-01-29 16:48:00.041,2026-01-29T09:47:59.263Z,-0.2695,0.2207,-0.0332
2026-01-29 16:48:00.097,2026-01-29T09:47:59.273Z,-0.3066,0.0977,-0.0664
2026-01-29 16:48:00.098,2026-01-29T09:47:59.283Z,-0.3047,-0.0586,-0.1133
2026-01-29 16:48:00.098,2026-01-29T09:47:59.293Z,-0.2754,-0.2168,-0.1484
2026-01-29 16:48:00.098,2026-01-29T09:47:59.313Z,-0.2832,-0.3418,-0.1602
2026-01-29 16:48:00.099,2026-01-29T09:47:59.463Z,0.0801,0.7461,0.0586
2026-01-29 16:48:00.099,2026-01-29T09:47:59.523Z,0.0957,0.5020,-0.0527
2026-01-29 16:48:00.099,2026-01-29T09:47:59.533Z,0.0898,0.4023,-0.0781
2026-01-29 16:48:00.099,2026-01-29T09:47:59.543Z,0.0957,0.3535,-0.0977
2026-01-29 16:48:00.101,2026-01-29T09:47:59.553Z,0.1152,0.2910,-0.0957
2026-01-29 16:48:00.186,2026-01-29T09:47:59.563Z,0.1348,0.2832,-0.0938
2026-01-29 16:48:00.188,2026-01-29T09:47:59.573Z,0.1582,0.3203,-0.0879
2026-01-29 16:48:00.217,2026-01-29T09:47:59.583Z,0.1719,0.3691,-0.0957
2026-01-29 16:48:00.217,2026-01-29T09:47:59.593Z,0.1777,0.4082,-0.1074
2026-01-29 16:48:00.217,2026-01-29T09:47:59.603Z,0.1797,0.4473,-0.1406
2026-01-29 16:48:00.245,2026-01-29T09:47:59.613Z,0.1895,0.4570,-0.1465
2026-01-29 16:48:00.247,2026-01-29T09:47:59.623Z,0.2051,0.3926,-0.1602
2026-01-29 16:48:00.247,2026-01-29T09:47:59.633Z,0.2500,0.3789,-0.1738
2026-01-29 16:48:00.247,2026-01-29T09:47:59.643Z,0.2754,0.3809,-0.1836
2026-01-29 16:48:00.248,2026-01-29T09:47:59.653Z,0.2832,0.3613,-0.1934
2026-01-29 16:48:00.249,2026-01-29T09:47:59.663Z,0.3066,0.3320,-0.2227
2026-01-29 16:48:00.249,2026-01-29T09:47:59.673Z,0.3281,0.2656,-0.2656
2026-01-29 16:48:00.249,2026-01-29T09:47:59.683Z,0.3398,0.2246,-0.3008
2026-01-29 16:48:00.251,2026-01-29T09:47:59.693Z,0.3555,0.1758,-0.3379
2026-01-29 16:48:00.276,2026-01-29T09:47:59.703Z,0.3711,0.1699,-0.3848
2026-01-29 16:48:00.276,2026-01-29T09:47:59.713Z,0.4004,0.2246,-0.4297
2026-01-29 16:48:00.277,2026-01-29T09:47:59.723Z,0.4199,0.2891,-0.4648
2026-01-29 16:48:00.278,2026-01-29T09:47:59.733Z,0.4590,0.3574,-0.5664
2026-01-29 16:48:00.306,2026-01-29T09:47:59.743Z,0.4590,0.3574,-0.5664
2026-01-29 16:48:00.307,2026-01-29T09:47:59.753Z,0.4922,0.3203,-0.6230
2026-01-29 16:48:00.307,2026-01-29T09:47:59.763Z,0.5391,0.2715,-0.6934
2026-01-29 16:48:00.396,2026-01-29T09:47:59.773Z,0.6602,0.3223,-0.8281
2026-01-29 16:48:00.397,2026-01-29T09:47:59.783Z,0.6602,0.3223,-0.8281
2026-01-29 16:48:00.398,2026-01-29T09:47:59.793Z,0.6855,0.5527,-0.9434
2026-01-29 16:48:00.398,2026-01-29T09:47:59.803Z,0.6914,0.7207,-0.9902
2026-01-29 16:48:00.398,2026-01-29T09:47:59.813Z,0.6973,0.8691,-1.0469
2026-01-29 16:48:00.399,2026-01-29T09:47:59.823Z,0.6934,0.9844,-1.1289
2026-01-29 16:48:00.426,2026-01-29T09:47:59.833Z,0.6738,1.0332,-1.2129
2026-01-29 16:48:00.427,2026-01-29T09:47:59.843Z,0.6816,1.0898,-1.2871
2026-01-29 16:48:00.428,2026-01-29T09:47:59.853Z,0.6797,1.0742,-1.3574
2026-01-29 16:48:00.429,2026-01-29T09:47:59.863Z,0.6348,0.9590,-1.4570
2026-01-29 16:48:00.429,2026-01-29T09:47:59.873Z,0.5801,0.7988,-1.5430
2026-01-29 16:48:00.429,2026-01-29T09:47:59.883Z,0.5273,0.6777,-1.5762
2026-01-29 16:48:00.429,2026-01-29T09:47:59.893Z,0.5293,0.5977,-1.6016
2026-01-29 16:48:00.430,2026-01-29T09:47:59.903Z,0.5723,0.4629,-1.6348
2026-01-29 16:48:00.430,2026-01-29T09:47:59.913Z,0.5820,0.2656,-1.6602
2026-01-29 16:48:00.456,2026-01-29T09:47:59.923Z,0.5234,0.1582,-1.6250
2026-01-29 16:48:00.456,2026-01-29T09:47:59.933Z,0.4922,0.0566,-1.5391
2026-01-29 16:48:00.456,2026-01-29T09:47:59.943Z,0.4922,0.0566,-1.5391
2026-01-29 16:48:00.458,2026-01-29T09:47:59.953Z,0.6289,-0.4316,-1.3379
2026-01-29 16:48:00.486,2026-01-29T09:47:59.963Z,0.7246,-0.6562,-1.2168
2026-01-29 16:48:00.487,2026-01-29T09:47:59.973Z,0.7246,-0.6562,-1.2168
2026-01-29 16:48:00.487,2026-01-29T09:47:59.983Z,0.7539,-1.2129,-1.0488
2026-01-29 16:48:00.488,2026-01-29T09:47:59.993Z,0.6465,-1.4258,-0.9355
2026-01-29 16:48:00.516,2026-01-29T09:48:00.003Z,0.4805,-1.6289,-0.7930
2026-01-29 16:48:00.545,2026-01-29T09:48:00.013Z,0.2812,-1.6328,-0.5762
2026-01-29 16:48:00.547,2026-01-29T09:48:00.023Z,0.1621,-1.3574,-0.2852
2026-01-29 16:48:00.547,2026-01-29T09:48:00.034Z,0.1699,-1.1074,-0.0098
2026-01-29 16:48:00.547,2026-01-29T09:48:00.045Z,0.2188,-0.8672,0.2324
2026-01-29 16:48:00.548,2026-01-29T09:48:00.055Z,0.2578,-0.6641,0.4453
2026-01-29 16:48:00.728,2026-01-29T09:48:00.065Z,0.2617,-0.5664,0.6426
2026-01-29 16:48:00.728,2026-01-29T09:48:00.075Z,0.2031,-0.6367,0.8027
2026-01-29 16:48:00.728,2026-01-29T09:48:00.085Z,0.0820,-0.8926,0.9082
2026-01-29 16:48:00.729,2026-01-29T09:48:00.095Z,-0.0801,-1.1074,1.0039
2026-01-29 16:48:00.730,2026-01-29T09:48:00.105Z,-0.2422,-1.2773,1.0859
2026-01-29 16:48:00.730,2026-01-29T09:48:00.115Z,-0.4062,-1.4961,1.1328
2026-01-29 16:48:00.730,2026-01-29T09:48:00.125Z,-0.5059,-1.6211,1.1738
2026-01-29 16:48:00.730,2026-01-29T09:48:00.135Z,-0.4941,-1.6445,1.2168
2026-01-29 16:48:00.730,2026-01-29T09:48:00.145Z,-0.4551,-1.4902,1.2617
2026-01-29 16:48:00.756,2026-01-29T09:48:00.155Z,-0.3848,-1.1602,1.3223
2026-01-29 16:48:00.757,2026-01-29T09:48:00.165Z,-0.3105,-0.7871,1.3965
2026-01-29 16:48:00.785,2026-01-29T09:48:00.175Z,-0.2559,-0.4824,1.4785
2026-01-29 16:48:00.786,2026-01-29T09:48:00.185Z,-0.2285,-0.2578,1.5547
2026-01-29 16:48:00.786,2026-01-29T09:48:00.195Z,-0.2441,-0.1426,1.5859
2026-01-29 16:48:00.788,2026-01-29T09:48:00.205Z,-0.3008,-0.1641,1.6016
2026-01-29 16:48:00.788,2026-01-29T09:48:00.215Z,-0.3672,-0.2539,1.6211
2026-01-29 16:48:00.789,2026-01-29T09:48:00.225Z,-0.4531,-0.3887,1.6152
2026-01-29 16:48:00.789,2026-01-29T09:48:00.235Z,-0.5195,-0.5645,1.5703
2026-01-29 16:48:00.790,2026-01-29T09:48:00.245Z,-0.6074,-0.6250,1.4922
2026-01-29 16:48:00.790,2026-01-29T09:48:00.255Z,-0.6797,-0.4727,1.4414
2026-01-29 16:48:00.816,2026-01-29T09:48:00.265Z,-0.6953,-0.2422,1.3945
2026-01-29 16:48:00.875,2026-01-29T09:48:00.275Z,-0.6973,-0.1152,1.3477
2026-01-29 16:48:00.877,2026-01-29T09:48:00.285Z,-0.6738,0.0938,1.3027
2026-01-29 16:48:00.877,2026-01-29T09:48:00.295Z,-0.6426,0.3027,1.2617
2026-01-29 16:48:00.878,2026-01-29T09:48:00.305Z,-0.6035,0.3516,1.1855
2026-01-29 16:48:00.878,2026-01-29T09:48:00.315Z,-0.5625,0.3594,1.1250
2026-01-29 16:48:00.879,2026-01-29T09:48:00.325Z,-0.5586,0.3730,1.1055
2026-01-29 16:48:00.879,2026-01-29T09:48:00.335Z,-0.5430,0.2539,1.0410
2026-01-29 16:48:00.879,2026-01-29T09:48:00.345Z,-0.5449,0.1699,0.9414
2026-01-29 16:48:00.881,2026-01-29T09:48:00.355Z,-0.5469,0.2285,0.8301
2026-01-29 16:48:00.907,2026-01-29T09:48:00.365Z,-0.5176,0.2793,0.7188
2026-01-29 16:48:00.908,2026-01-29T09:48:00.375Z,-0.4785,0.3691,0.5469
2026-01-29 16:48:00.908,2026-01-29T09:48:00.385Z,-0.3809,0.4121,0.3145
2026-01-29 16:48:00.965,2026-01-29T09:48:00.395Z,-0.2070,0.4922,0.0117
2026-01-29 16:48:00.967,2026-01-29T09:48:00.405Z,0.0371,0.5195,-0.3320
2026-01-29 16:48:00.968,2026-01-29T09:48:00.415Z,0.2285,0.4473,-0.4531
2026-01-29 16:48:01.055,2026-01-29T09:48:00.425Z,0.3184,0.2891,-0.2500
2026-01-29 16:48:01.057,2026-01-29T09:48:00.435Z,0.2539,-0.0039,0.1797
2026-01-29 16:48:01.057,2026-01-29T09:48:00.445Z,0.1035,-0.3965,0.5840
2026-01-29 16:48:01.057,2026-01-29T09:48:00.455Z,-0.0645,-0.8555,0.7070
2026-01-29 16:48:01.058,2026-01-29T09:48:00.465Z,-0.2598,-1.2949,0.3965
2026-01-29 16:48:01.059,2026-01-29T09:48:00.475Z,-0.2324,-1.5137,-0.1426
2026-01-29 16:48:01.059,2026-01-29T09:48:00.485Z,-0.0254,-1.3301,-0.3652
2026-01-29 16:48:01.059,2026-01-29T09:48:00.495Z,0.1270,-0.7422,-0.1895
2026-01-29 16:48:01.062,2026-01-29T09:48:00.505Z,0.1133,-0.0723,0.1211
2026-01-29 16:48:01.088,2026-01-29T09:48:00.515Z,-0.0391,0.4922,0.3008
2026-01-29 16:48:01.089,2026-01-29T09:48:00.525Z,-0.0801,0.8867,0.3320
2026-01-29 16:48:01.089,2026-01-29T09:48:00.535Z,-0.0547,1.0488,0.2656
2026-01-29 16:48:01.089,2026-01-29T09:48:00.545Z,-0.0020,1.0352,0.1641
2026-01-29 16:48:01.089,2026-01-29T09:48:00.555Z,0.0391,0.9004,0.1094
2026-01-29 16:48:01.089,2026-01-29T09:48:00.565Z,0.0078,0.6621,0.0469
2026-01-29 16:48:01.091,2026-01-29T09:48:00.575Z,-0.0781,0.4648,-0.0195
2026-01-29 16:48:01.091,2026-01-29T09:48:00.585Z,-0.1562,0.0859,-0.0977
2026-01-29 16:48:01.092,2026-01-29T09:48:00.595Z,-0.1660,-0.3008,-0.1621
2026-01-29 16:48:01.117,2026-01-29T09:48:00.605Z,-0.1465,-0.5762,-0.2031
2026-01-29 16:48:01.117,2026-01-29T09:48:00.615Z,-0.1250,-0.6211,-0.2129
2026-01-29 16:48:01.117,2026-01-29T09:48:00.625Z,-0.1484,-0.6504,-0.1973
2026-01-29 16:48:01.145,2026-01-29T09:48:00.635Z,-0.1543,-0.5273,-0.1914
2026-01-29 16:48:01.147,2026-01-29T09:48:00.645Z,-0.1230,-0.3613,-0.1973
2026-01-29 16:48:01.148,2026-01-29T09:48:00.655Z,-0.0625,-0.2383,-0.1445
2026-01-29 16:48:01.205,2026-01-29T09:48:00.665Z,-0.0098,-0.1289,-0.1055
2026-01-29 16:48:01.207,2026-01-29T09:48:00.675Z,0.0059,-0.0859,-0.0996
2026-01-29 16:48:01.207,2026-01-29T09:48:00.685Z,0.0312,-0.0508,-0.1016
2026-01-29 16:48:01.207,2026-01-29T09:48:00.695Z,0.0488,-0.0215,-0.1230
2026-01-29 16:48:01.207,2026-01-29T09:48:00.705Z,0.0625,-0.0137,-0.1641
2026-01-29 16:48:01.209,2026-01-29T09:48:00.715Z,0.0762,0.0137,-0.1445
2026-01-29 16:48:01.237,2026-01-29T09:48:00.725Z,0.0957,0.1094,-0.0938
2026-01-29 16:48:01.237,2026-01-29T09:48:00.735Z,0.1445,0.2539,-0.0449
2026-01-29 16:48:01.237,2026-01-29T09:48:00.745Z,0.1973,0.3984,-0.0215
2026-01-29 16:48:01.268,2026-01-29T09:48:00.755Z,0.2285,0.4844,-0.0059
2026-01-29 16:48:01.268,2026-01-29T09:48:00.765Z,0.2109,0.4297,-0.0137
2026-01-29 16:48:01.269,2026-01-29T09:48:00.775Z,0.1797,0.3281,-0.0469
2026-01-29 16:48:01.297,2026-01-29T09:48:00.785Z,0.1699,0.2168,-0.1055
2026-01-29 16:48:01.298,2026-01-29T09:48:00.795Z,0.1758,0.0371,-0.1543
2026-01-29 16:48:01.298,2026-01-29T09:48:00.805Z,0.1914,-0.0684,-0.1699
2026-01-29 16:48:01.325,2026-01-29T09:48:00.815Z,0.2168,0.0059,-0.1895
2026-01-29 16:48:01.327,2026-01-29T09:48:00.825Z,0.2305,0.0508,-0.2520
2026-01-29 16:48:01.327,2026-01-29T09:48:00.835Z,0.2793,0.1348,-0.3047
2026-01-29 16:48:01.355,2026-01-29T09:48:00.845Z,0.3340,0.2832,-0.3574
2026-01-29 16:48:01.357,2026-01-29T09:48:00.855Z,0.3770,0.4141,-0.4160
2026-01-29 16:48:01.358,2026-01-29T09:48:00.865Z,0.4355,0.5449,-0.4688
2026-01-29 16:48:01.386,2026-01-29T09:48:00.875Z,0.5078,0.6504,-0.5449
2026-01-29 16:48:01.388,2026-01-29T09:48:00.885Z,0.5762,0.6680,-0.6270
2026-01-29 16:48:01.388,2026-01-29T09:48:00.895Z,0.6523,0.6191,-0.6992
2026-01-29 16:48:01.418,2026-01-29T09:48:00.905Z,0.7363,0.5430,-0.7734
2026-01-29 16:48:01.419,2026-01-29T09:48:00.915Z,0.7715,0.4844,-0.8418
2026-01-29 16:48:01.447,2026-01-29T09:48:00.925Z,0.8047,0.4590,-0.9082
2026-01-29 16:48:01.448,2026-01-29T09:48:00.935Z,0.8320,0.4355,-0.9863
2026-01-29 16:48:01.448,2026-01-29T09:48:00.945Z,0.8379,0.4414,-1.0527
2026-01-29 16:48:01.475,2026-01-29T09:48:00.955Z,0.8691,0.4863,-1.1250
2026-01-29 16:48:01.477,2026-01-29T09:48:00.965Z,0.9043,0.6094,-1.2070
2026-01-29 16:48:01.506,2026-01-29T09:48:00.975Z,0.9023,0.7773,-1.3066
2026-01-29 16:48:01.507,2026-01-29T09:48:00.985Z,0.8926,0.9570,-1.3906
2026-01-29 16:48:01.507,2026-01-29T09:48:00.995Z,0.8867,1.0957,-1.4453
2026-01-29 16:48:01.507,2026-01-29T09:48:01.005Z,0.8672,1.0938,-1.5078
2026-01-29 16:48:01.536,2026-01-29T09:48:01.015Z,0.8516,0.9941,-1.5723
2026-01-29 16:48:01.537,2026-01-29T09:48:01.025Z,0.8398,0.8027,-1.6328
2026-01-29 16:48:01.537,2026-01-29T09:48:01.035Z,0.8223,0.5059,-1.6875
2026-01-29 16:48:01.537,2026-01-29T09:48:01.045Z,0.7539,0.1426,-1.7383
2026-01-29 16:48:01.565,2026-01-29T09:48:01.055Z,0.6035,-0.0996,-1.7422
2026-01-29 16:48:01.567,2026-01-29T09:48:01.065Z,0.5820,-0.4004,-1.7109
2026-01-29 16:48:01.567,2026-01-29T09:48:01.075Z,0.6445,-0.6953,-1.6387
2026-01-29 16:48:01.626,2026-01-29T09:48:01.085Z,0.6641,-0.8691,-1.5137
2026-01-29 16:48:01.628,2026-01-29T09:48:01.095Z,0.6484,-0.9707,-1.3008
2026-01-29 16:48:01.685,2026-01-29T09:48:01.105Z,0.5723,-1.0332,-1.0098
2026-01-29 16:48:01.687,2026-01-29T09:48:01.115Z,0.4512,-0.9883,-0.6582
2026-01-29 16:48:01.687,2026-01-29T09:48:01.125Z,0.3242,-0.8438,-0.2812
2026-01-29 16:48:01.688,2026-01-29T09:48:01.135Z,0.1621,-0.9141,0.0234
2026-01-29 16:48:01.688,2026-01-29T09:48:01.145Z,-0.0371,-1.0762,0.2324
2026-01-29 16:48:01.689,2026-01-29T09:48:01.155Z,-0.1445,-1.0215,0.4492
2026-01-29 16:48:01.689,2026-01-29T09:48:01.165Z,-0.1855,-0.9258,0.6543
2026-01-29 16:48:01.745,2026-01-29T09:48:01.175Z,-0.2578,-0.8711,0.8320
2026-01-29 16:48:01.747,2026-01-29T09:48:01.185Z,-0.3398,-0.7754,1.0391
2026-01-29 16:48:01.748,2026-01-29T09:48:01.195Z,-0.4043,-0.6699,1.2539
2026-01-29 16:48:01.748,2026-01-29T09:48:01.205Z,-0.4844,-0.6387,1.4570
2026-01-29 16:48:01.748,2026-01-29T09:48:01.215Z,-0.5957,-0.4941,1.6562
2026-01-29 16:48:01.749,2026-01-29T09:48:01.225Z,-0.6797,-0.2676,1.8477
2026-01-29 16:48:01.749,2026-01-29T09:48:01.235Z,-0.7383,-0.0996,2.0371
2026-01-29 16:48:01.749,2026-01-29T09:48:01.245Z,-0.8203,-0.0781,2.1602
2026-01-29 16:48:01.752,2026-01-29T09:48:01.255Z,-0.9082,-0.1602,2.2500
2026-01-29 16:48:01.777,2026-01-29T09:48:01.265Z,-0.9902,-0.2402,2.3223
2026-01-29 16:48:01.777,2026-01-29T09:48:01.275Z,-1.0430,-0.3516,2.3730
2026-01-29 16:48:01.778,2026-01-29T09:48:01.285Z,-1.0879,-0.5938,2.3633
2026-01-29 16:48:01.805,2026-01-29T09:48:01.295Z,-1.1738,-0.7715,2.3574
2026-01-29 16:48:01.807,2026-01-29T09:48:01.305Z,-1.2012,-0.8809,2.3926
2026-01-29 16:48:01.807,2026-01-29T09:48:01.315Z,-1.1602,-1.0723,2.3418
2026-01-29 16:48:01.835,2026-01-29T09:48:01.325Z,-1.1191,-1.0410,2.2695
2026-01-29 16:48:01.865,2026-01-29T09:48:01.335Z,-1.0605,-0.8477,2.1758
2026-01-29 16:48:01.867,2026-01-29T09:48:01.345Z,-1.0098,-0.5156,2.0977
2026-01-29 16:48:01.868,2026-01-29T09:48:01.355Z,-0.9668,-0.0098,2.0449
2026-01-29 16:48:01.868,2026-01-29T09:48:01.365Z,-0.8555,0.3008,1.9805
2026-01-29 16:48:01.868,2026-01-29T09:48:01.375Z,-0.8730,0.4023,1.8340
2026-01-29 16:48:01.897,2026-01-29T09:48:01.385Z,-0.9844,0.3984,1.7070
2026-01-29 16:48:01.897,2026-01-29T09:48:01.395Z,-1.0977,0.3496,1.5488
2026-01-29 16:48:01.897,2026-01-29T09:48:01.405Z,-1.1426,0.2422,1.3262
2026-01-29 16:48:01.927,2026-01-29T09:48:01.415Z,-1.0566,0.1621,1.0820
2026-01-29 16:48:01.928,2026-01-29T09:48:01.425Z,-0.8359,0.0449,0.8105
2026-01-29 16:48:01.928,2026-01-29T09:48:01.435Z,-0.6094,-0.0039,0.5391
2026-01-29 16:48:01.955,2026-01-29T09:48:01.445Z,-0.3574,0.0137,0.2344
2026-01-29 16:48:01.957,2026-01-29T09:48:01.455Z,-0.0488,-0.0605,-0.1621
2026-01-29 16:48:01.957,2026-01-29T09:48:01.465Z,0.2500,-0.1992,-0.5664
2026-01-29 16:48:01.985,2026-01-29T09:48:01.475Z,0.5078,-0.2871,-0.8086
2026-01-29 16:48:01.987,2026-01-29T09:48:01.485Z,0.6582,-0.4785,-0.8379
2026-01-29 16:48:01.987,2026-01-29T09:48:01.495Z,0.6328,-0.9609,-0.7051
2026-01-29 16:48:02.015,2026-01-29T09:48:01.505Z,0.3027,-1.2812,-0.4062
2026-01-29 16:48:02.017,2026-01-29T09:48:01.515Z,-0.0762,-1.1445,-0.0312
2026-01-29 16:48:02.018,2026-01-29T09:48:01.525Z,-0.3027,-0.9863,0.0215
2026-01-29 16:48:02.045,2026-01-29T09:48:01.535Z,-0.3105,-0.9609,-0.2812
2026-01-29 16:48:02.047,2026-01-29T09:48:01.545Z,-0.0938,-0.9941,-0.5977
2026-01-29 16:48:02.047,2026-01-29T09:48:01.555Z,0.1602,-0.7188,-0.6602
2026-01-29 16:48:02.075,2026-01-29T09:48:01.565Z,0.2637,0.0586,-0.4609
2026-01-29 16:48:02.077,2026-01-29T09:48:01.575Z,0.1328,0.7402,-0.2852
2026-01-29 16:48:02.077,2026-01-29T09:48:01.585Z,0.0078,1.1016,-0.1973
2026-01-29 16:48:02.106,2026-01-29T09:48:01.595Z,0.0371,1.1230,-0.1660
2026-01-29 16:48:02.108,2026-01-29T09:48:01.605Z,0.0918,0.9160,-0.1602
2026-01-29 16:48:02.108,2026-01-29T09:48:01.615Z,0.0918,0.6211,-0.2070
2026-01-29 16:48:02.137,2026-01-29T09:48:01.625Z,0.0469,0.2188,-0.2734
2026-01-29 16:48:02.137,2026-01-29T09:48:01.635Z,-0.0508,-0.2793,-0.3262
2026-01-29 16:48:02.137,2026-01-29T09:48:01.645Z,-0.1543,-0.6230,-0.3379
2026-01-29 16:48:02.167,2026-01-29T09:48:01.655Z,-0.1797,-0.6699,-0.2969
2026-01-29 16:48:02.167,2026-01-29T09:48:01.665Z,-0.1758,-0.6406,-0.2441
2026-01-29 16:48:02.168,2026-01-29T09:48:01.675Z,-0.1836,-0.5762,-0.2168
2026-01-29 16:48:02.225,2026-01-29T09:48:01.685Z,-0.1602,-0.4199,-0.1992
2026-01-29 16:48:02.227,2026-01-29T09:48:01.695Z,-0.1230,-0.2031,-0.2070
2026-01-29 16:48:02.227,2026-01-29T09:48:01.705Z,-0.1172,-0.0391,-0.1895
2026-01-29 16:48:02.227,2026-01-29T09:48:01.715Z,-0.0762,0.1094,-0.1406
2026-01-29 16:48:02.228,2026-01-29T09:48:01.725Z,-0.0293,0.1328,-0.1602
2026-01-29 16:48:02.229,2026-01-29T09:48:01.735Z,0.0039,0.1055,-0.1973
2026-01-29 16:48:02.256,2026-01-29T09:48:01.745Z,0.0039,0.0488,-0.2148
2026-01-29 16:48:02.257,2026-01-29T09:48:01.755Z,0.0273,0.0078,-0.2305
2026-01-29 16:48:02.257,2026-01-29T09:48:01.765Z,0.0781,0.0156,-0.2324
2026-01-29 16:48:02.315,2026-01-29T09:48:01.775Z,0.1172,0.0684,-0.2266
2026-01-29 16:48:02.317,2026-01-29T09:48:01.785Z,0.1445,0.1758,-0.2188
2026-01-29 16:48:02.317,2026-01-29T09:48:01.795Z,0.1816,0.2891,-0.2148
2026-01-29 16:48:02.318,2026-01-29T09:48:01.805Z,0.2148,0.3672,-0.2324
2026-01-29 16:48:02.318,2026-01-29T09:48:01.815Z,0.2383,0.4570,-0.2461
2026-01-29 16:48:02.319,2026-01-29T09:48:01.825Z,0.2617,0.5098,-0.2422
2026-01-29 16:48:02.375,2026-01-29T09:48:01.835Z,0.2773,0.4902,-0.2500
2026-01-29 16:48:02.377,2026-01-29T09:48:01.845Z,0.2637,0.4180,-0.2656
2026-01-29 16:48:02.377,2026-01-29T09:48:01.855Z,0.2578,0.3535,-0.2793
2026-01-29 16:48:02.377,2026-01-29T09:48:01.865Z,0.2500,0.2695,-0.2969
2026-01-29 16:48:02.435,2026-01-29T09:48:01.875Z,0.2539,0.1973,-0.3066
2026-01-29 16:48:02.436,2026-01-29T09:48:01.885Z,0.2734,0.2266,-0.3027
2026-01-29 16:48:02.438,2026-01-29T09:48:01.895Z,0.2832,0.2402,-0.3066
2026-01-29 16:48:02.438,2026-01-29T09:48:01.905Z,0.2812,0.2051,-0.3066
2026-01-29 16:48:02.439,2026-01-29T09:48:01.915Z,0.2676,0.1875,-0.3086
2026-01-29 16:48:02.439,2026-01-29T09:48:01.925Z,0.2812,0.1484,-0.3242
2026-01-29 16:48:02.439,2026-01-29T09:48:01.935Z,0.3047,0.0977,-0.3223
2026-01-29 16:48:02.440,2026-01-29T09:48:01.945Z,0.3301,0.0879,-0.3379
2026-01-29 16:48:02.466,2026-01-29T09:48:01.955Z,0.3457,0.1035,-0.3535
2026-01-29 16:48:02.467,2026-01-29T09:48:01.965Z,0.3457,0.1289,-0.3770
2026-01-29 16:48:02.467,2026-01-29T09:48:01.975Z,0.3398,0.1641,-0.4121
2026-01-29 16:48:02.496,2026-01-29T09:48:01.985Z,0.3613,0.1797,-0.4492
2026-01-29 16:48:02.497,2026-01-29T09:48:01.995Z,0.3809,0.1152,-0.4805
2026-01-29 16:48:02.497,2026-01-29T09:48:02.005Z,0.4062,0.0566,-0.5156
2026-01-29 16:48:02.526,2026-01-29T09:48:02.015Z,0.4355,-0.0234,-0.5508
2026-01-29 16:48:02.527,2026-01-29T09:48:02.025Z,0.4512,-0.0859,-0.5918
2026-01-29 16:48:02.527,2026-01-29T09:48:02.035Z,0.4844,-0.0840,-0.6309
2026-01-29 16:48:02.556,2026-01-29T09:48:02.045Z,0.5293,-0.0645,-0.6777
2026-01-29 16:48:02.557,2026-01-29T09:48:02.055Z,0.5820,0.0156,-0.7168
2026-01-29 16:48:02.557,2026-01-29T09:48:02.065Z,0.6270,0.1152,-0.7461
2026-01-29 16:48:02.585,2026-01-29T09:48:02.075Z,0.6582,0.1992,-0.7773
2026-01-29 16:48:02.586,2026-01-29T09:48:02.085Z,0.6758,0.2363,-0.8223
2026-01-29 16:48:02.586,2026-01-29T09:48:02.095Z,0.7070,0.2383,-0.8770
2026-01-29 16:48:02.616,2026-01-29T09:48:02.105Z,0.7578,0.2949,-0.9414
2026-01-29 16:48:02.645,2026-01-29T09:48:02.115Z,0.8105,0.4238,-0.9941
2026-01-29 16:48:02.647,2026-01-29T09:48:02.125Z,0.7891,0.5762,-1.0059
2026-01-29 16:48:02.648,2026-01-29T09:48:02.135Z,0.7598,0.7305,-0.9961
2026-01-29 16:48:02.648,2026-01-29T09:48:02.145Z,0.7188,0.8125,-1.0195
2026-01-29 16:48:02.648,2026-01-29T09:48:02.155Z,0.7344,0.8438,-1.0605
2026-01-29 16:48:02.706,2026-01-29T09:48:02.165Z,0.7773,0.9043,-1.0977
2026-01-29 16:48:02.735,2026-01-29T09:48:02.175Z,0.7910,0.9902,-1.1211
2026-01-29 16:48:02.737,2026-01-29T09:48:02.185Z,0.7539,1.0293,-1.1738
2026-01-29 16:48:02.737,2026-01-29T09:48:02.195Z,0.7090,1.0156,-1.2500
2026-01-29 16:48:02.737,2026-01-29T09:48:02.205Z,0.6719,1.0391,-1.2910
2026-01-29 16:48:02.738,2026-01-29T09:48:02.215Z,0.6484,1.0508,-1.3262
2026-01-29 16:48:02.739,2026-01-29T09:48:02.225Z,0.6504,0.9863,-1.3672
2026-01-29 16:48:02.739,2026-01-29T09:48:02.235Z,0.6875,0.8086,-1.4219
2026-01-29 16:48:02.739,2026-01-29T09:48:02.245Z,0.6855,0.5957,-1.4414
2026-01-29 16:48:02.768,2026-01-29T09:48:02.255Z,0.6250,0.4805,-1.3984
2026-01-29 16:48:02.768,2026-01-29T09:48:02.265Z,0.7031,0.1445,-1.3359
2026-01-29 16:48:02.768,2026-01-29T09:48:02.275Z,0.7363,-0.1465,-1.2070
2026-01-29 16:48:02.797,2026-01-29T09:48:02.285Z,0.7070,-0.3164,-0.9883
2026-01-29 16:48:02.798,2026-01-29T09:48:02.295Z,0.5469,-0.6309,-0.7871
2026-01-29 16:48:02.798,2026-01-29T09:48:02.305Z,0.2793,-1.1680,-0.6777
2026-01-29 16:48:02.825,2026-01-29T09:48:02.315Z,-0.0078,-1.4414,-0.5215
2026-01-29 16:48:02.828,2026-01-29T09:48:02.325Z,-0.1953,-1.3184,-0.1660
2026-01-29 16:48:02.828,2026-01-29T09:48:02.335Z,-0.2676,-1.1992,0.2910
2026-01-29 16:48:02.885,2026-01-29T09:48:02.345Z,-0.3398,-1.1836,0.6973
2026-01-29 16:48:02.887,2026-01-29T09:48:02.355Z,-0.4316,-1.0488,1.0273
2026-01-29 16:48:02.888,2026-01-29T09:48:02.365Z,-0.5469,-0.8457,1.3027
2026-01-29 16:48:02.888,2026-01-29T09:48:02.375Z,-0.6348,-0.6641,1.5547
2026-01-29 16:48:02.888,2026-01-29T09:48:02.385Z,-0.6680,-0.4922,1.7715
2026-01-29 16:48:02.915,2026-01-29T09:48:02.395Z,-0.6719,-0.3828,1.9277
2026-01-29 16:48:02.917,2026-01-29T09:48:02.405Z,-0.6992,-0.2754,2.0352
2026-01-29 16:48:02.917,2026-01-29T09:48:02.415Z,-0.7676,-0.0840,2.1562
2026-01-29 16:48:02.946,2026-01-29T09:48:02.425Z,-0.8457,0.0586,2.2695
2026-01-29 16:48:02.947,2026-01-29T09:48:02.435Z,-0.9395,0.1328,2.3672
2026-01-29 16:48:02.947,2026-01-29T09:48:02.445Z,-1.0078,0.1797,2.4492
2026-01-29 16:48:02.975,2026-01-29T09:48:02.455Z,-1.0742,0.1875,2.4668
2026-01-29 16:48:02.977,2026-01-29T09:48:02.465Z,-1.1484,0.1172,2.4258
2026-01-29 16:48:02.977,2026-01-29T09:48:02.475Z,-1.2246,0.0352,2.3867
2026-01-29 16:48:02.978,2026-01-29T09:48:02.485Z,-1.2949,-0.0898,2.3594
2026-01-29 16:48:03.007,2026-01-29T09:48:02.495Z,-1.3535,-0.2715,2.3105
2026-01-29 16:48:03.008,2026-01-29T09:48:02.505Z,-1.3438,-0.4785,2.2207
2026-01-29 16:48:03.008,2026-01-29T09:48:02.515Z,-1.2793,-0.6602,2.0742
2026-01-29 16:48:03.035,2026-01-29T09:48:02.525Z,-1.1719,-0.6934,1.9336
2026-01-29 16:48:03.037,2026-01-29T09:48:02.535Z,-0.9902,-0.7305,1.8105
2026-01-29 16:48:03.037,2026-01-29T09:48:02.545Z,-0.8242,-0.7461,1.6953
2026-01-29 16:48:03.066,2026-01-29T09:48:02.555Z,-0.6777,-0.8164,1.5293
2026-01-29 16:48:03.069,2026-01-29T09:48:02.565Z,-0.5527,-0.8965,1.3047
2026-01-29 16:48:03.069,2026-01-29T09:48:02.575Z,-0.4336,-0.8672,1.0020
2026-01-29 16:48:03.155,2026-01-29T09:48:02.585Z,-0.2988,-0.8965,0.5781
2026-01-29 16:48:03.157,2026-01-29T09:48:02.595Z,-0.1484,-0.9316,0.1055
2026-01-29 16:48:03.158,2026-01-29T09:48:02.605Z,-0.0195,-0.8906,-0.3984
2026-01-29 16:48:03.158,2026-01-29T09:48:02.615Z,0.1133,-0.7363,-0.8477
2026-01-29 16:48:03.158,2026-01-29T09:48:02.625Z,0.2500,-0.5684,-1.1738
2026-01-29 16:48:03.159,2026-01-29T09:48:02.635Z,0.4473,-0.3008,-1.1523
2026-01-29 16:48:03.159,2026-01-29T09:48:02.645Z,0.5586,-0.1211,-0.8066
2026-01-29 16:48:03.159,2026-01-29T09:48:02.655Z,0.4414,-0.1348,-0.2559
2026-01-29 16:48:03.161,2026-01-29T09:48:02.665Z,0.2422,-0.2402,0.2090
2026-01-29 16:48:03.187,2026-01-29T09:48:02.675Z,0.1016,-0.5078,0.2344
2026-01-29 16:48:03.187,2026-01-29T09:48:02.685Z,-0.0469,-0.8262,-0.2090
2026-01-29 16:48:03.187,2026-01-29T09:48:02.695Z,0.0273,-0.8262,-0.5566
2026-01-29 16:48:03.215,2026-01-29T09:48:02.705Z,0.1504,-0.7480,-0.6094
2026-01-29 16:48:03.217,2026-01-29T09:48:02.715Z,0.2168,-0.5215,-0.4980
2026-01-29 16:48:03.245,2026-01-29T09:48:02.725Z,0.1406,-0.0547,-0.3359
2026-01-29 16:48:03.247,2026-01-29T09:48:02.735Z,0.0625,0.3301,-0.2773
2026-01-29 16:48:03.247,2026-01-29T09:48:02.745Z,0.0918,0.5723,-0.3184
2026-01-29 16:48:03.247,2026-01-29T09:48:02.755Z,0.1934,0.5957,-0.3457
2026-01-29 16:48:03.275,2026-01-29T09:48:02.765Z,0.1582,0.4707,-0.3379
2026-01-29 16:48:03.277,2026-01-29T09:48:02.775Z,0.0723,0.4121,-0.2949
2026-01-29 16:48:03.277,2026-01-29T09:48:02.785Z,0.0508,0.3242,-0.2363
2026-01-29 16:48:03.305,2026-01-29T09:48:02.795Z,0.0449,0.0371,-0.2422
2026-01-29 16:48:03.307,2026-01-29T09:48:02.805Z,0.0020,-0.2344,-0.3066
2026-01-29 16:48:03.307,2026-01-29T09:48:02.815Z,-0.0312,-0.3105,-0.3516
2026-01-29 16:48:03.335,2026-01-29T09:48:02.825Z,-0.0410,-0.3945,-0.3672
2026-01-29 16:48:03.337,2026-01-29T09:48:02.835Z,-0.0332,-0.3848,-0.3555
2026-01-29 16:48:03.337,2026-01-29T09:48:02.845Z,-0.0117,-0.2852,-0.3125
2026-01-29 16:48:03.367,2026-01-29T09:48:02.855Z,-0.0137,-0.2012,-0.2773
2026-01-29 16:48:03.368,2026-01-29T09:48:02.865Z,-0.0352,-0.1680,-0.2832
2026-01-29 16:48:03.368,2026-01-29T09:48:02.875Z,-0.0527,-0.1934,-0.2988
2026-01-29 16:48:03.425,2026-01-29T09:48:02.885Z,-0.0508,-0.2480,-0.3125
2026-01-29 16:48:03.427,2026-01-29T09:48:02.895Z,-0.0586,-0.2383,-0.2969
2026-01-29 16:48:03.428,2026-01-29T09:48:02.905Z,-0.0684,-0.1484,-0.2520
2026-01-29 16:48:03.428,2026-01-29T09:48:02.915Z,-0.0684,-0.0664,-0.2090
2026-01-29 16:48:03.428,2026-01-29T09:48:02.925Z,-0.0742,-0.0508,-0.1836
2026-01-29 16:48:03.429,2026-01-29T09:48:02.935Z,-0.0625,-0.0566,-0.1875
2026-01-29 16:48:03.457,2026-01-29T09:48:02.945Z,-0.0527,-0.0352,-0.1914
2026-01-29 16:48:03.458,2026-01-29T09:48:02.955Z,-0.0410,0.0156,-0.1680
2026-01-29 16:48:03.458,2026-01-29T09:48:02.965Z,-0.0254,0.0840,-0.1230
2026-01-29 16:48:03.485,2026-01-29T09:48:02.975Z,-0.0254,0.1035,-0.0859
2026-01-29 16:48:03.487,2026-01-29T09:48:02.985Z,-0.0293,0.0996,-0.0645
2026-01-29 16:48:03.487,2026-01-29T09:48:02.995Z,-0.0312,0.0566,-0.0352
2026-01-29 16:48:03.515,2026-01-29T09:48:03.005Z,-0.0293,0.0430,-0.0215
2026-01-29 16:48:03.517,2026-01-29T09:48:03.015Z,-0.0098,0.0664,0.0000
2026-01-29 16:48:03.517,2026-01-29T09:48:03.025Z,0.0020,0.0703,0.0234
2026-01-29 16:48:03.545,2026-01-29T09:48:03.035Z,0.0137,0.0742,0.0312
2026-01-29 16:48:03.547,2026-01-29T09:48:03.045Z,0.0156,0.0430,0.0352
2026-01-29 16:48:03.547,2026-01-29T09:48:03.055Z,0.0039,0.0137,0.0293
2026-01-29 16:48:03.575,2026-01-29T09:48:03.065Z,-0.0098,0.0371,0.0215
2026-01-29 16:48:03.577,2026-01-29T09:48:03.075Z,-0.0039,0.1133,0.0430
2026-01-29 16:48:03.577,2026-01-29T09:48:03.085Z,0.0039,0.2363,0.0586
2026-01-29 16:48:03.605,2026-01-29T09:48:03.095Z,0.0156,0.3398,0.0547
2026-01-29 16:48:03.607,2026-01-29T09:48:03.105Z,0.0332,0.4082,0.0410
2026-01-29 16:48:03.607,2026-01-29T09:48:03.115Z,0.0527,0.4375,0.0254
2026-01-29 16:48:03.635,2026-01-29T09:48:03.125Z,0.0566,0.3887,0.0137
2026-01-29 16:48:03.637,2026-01-29T09:48:03.135Z,0.0684,0.3262,-0.0059
2026-01-29 16:48:03.637,2026-01-29T09:48:03.145Z,0.1055,0.2812,-0.0352
2026-01-29 16:48:03.666,2026-01-29T09:48:03.155Z,0.1465,0.2930,-0.0645
2026-01-29 16:48:03.666,2026-01-29T09:48:03.165Z,0.1816,0.3574,-0.0938
2026-01-29 16:48:03.667,2026-01-29T09:48:03.175Z,0.2168,0.4141,-0.1074
2026-01-29 16:48:03.695,2026-01-29T09:48:03.185Z,0.2188,0.4121,-0.1191
2026-01-29 16:48:03.696,2026-01-29T09:48:03.195Z,0.2090,0.3418,-0.1270
2026-01-29 16:48:03.696,2026-01-29T09:48:03.205Z,0.2344,0.2324,-0.1543
2026-01-29 16:48:03.726,2026-01-29T09:48:03.215Z,0.2617,0.1562,-0.1875
2026-01-29 16:48:03.729,2026-01-29T09:48:03.225Z,0.2734,0.1152,-0.2148
2026-01-29 16:48:03.729,2026-01-29T09:48:03.235Z,0.2852,0.1152,-0.2578
2026-01-29 16:48:03.785,2026-01-29T09:48:03.245Z,0.3145,0.1523,-0.2812
2026-01-29 16:48:03.787,2026-01-29T09:48:03.255Z,0.3457,0.1875,-0.3105
2026-01-29 16:48:03.788,2026-01-29T09:48:03.265Z,0.3828,0.1973,-0.3418
2026-01-29 16:48:03.788,2026-01-29T09:48:03.275Z,0.4121,0.1816,-0.3789
2026-01-29 16:48:03.789,2026-01-29T09:48:03.285Z,0.4414,0.1602,-0.4141
2026-01-29 16:48:03.789,2026-01-29T09:48:03.295Z,0.4922,0.1270,-0.4531
2026-01-29 16:48:03.817,2026-01-29T09:48:03.305Z,0.5312,0.1250,-0.4883
2026-01-29 16:48:03.817,2026-01-29T09:48:03.315Z,0.5742,0.1895,-0.5234
2026-01-29 16:48:03.818,2026-01-29T09:48:03.325Z,0.5996,0.2305,-0.5762
2026-01-29 16:48:03.845,2026-01-29T09:48:03.335Z,0.6074,0.3340,-0.6055
2026-01-29 16:48:03.848,2026-01-29T09:48:03.345Z,0.6270,0.3887,-0.6445
2026-01-29 16:48:03.848,2026-01-29T09:48:03.355Z,0.6270,0.3984,-0.6953
2026-01-29 16:48:03.877,2026-01-29T09:48:03.365Z,0.6328,0.3965,-0.7441
2026-01-29 16:48:03.878,2026-01-29T09:48:03.375Z,0.6230,0.3613,-0.7949
2026-01-29 16:48:03.878,2026-01-29T09:48:03.385Z,0.5996,0.3457,-0.8750
2026-01-29 16:48:03.906,2026-01-29T09:48:03.395Z,0.6172,0.3457,-0.9531
2026-01-29 16:48:03.907,2026-01-29T09:48:03.405Z,0.5898,0.3848,-1.0195
2026-01-29 16:48:03.907,2026-01-29T09:48:03.415Z,0.5879,0.4609,-1.0723
2026-01-29 16:48:03.935,2026-01-29T09:48:03.425Z,0.5918,0.4941,-1.1309
2026-01-29 16:48:03.937,2026-01-29T09:48:03.435Z,0.5820,0.4980,-1.1914
2026-01-29 16:48:03.937,2026-01-29T09:48:03.445Z,0.5703,0.5195,-1.2500
2026-01-29 16:48:03.965,2026-01-29T09:48:03.455Z,0.5508,0.5254,-1.3008
2026-01-29 16:48:03.967,2026-01-29T09:48:03.465Z,0.5215,0.5117,-1.3418
2026-01-29 16:48:03.967,2026-01-29T09:48:03.475Z,0.4766,0.4805,-1.3887
2026-01-29 16:48:03.998,2026-01-29T09:48:03.485Z,0.4316,0.4219,-1.4609
2026-01-29 16:48:03.998,2026-01-29T09:48:03.495Z,0.3867,0.2910,-1.5664
2026-01-29 16:48:03.999,2026-01-29T09:48:03.505Z,0.3477,0.1406,-1.6660
2026-01-29 16:48:04.028,2026-01-29T09:48:03.515Z,0.3398,0.0020,-1.7363
2026-01-29 16:48:04.028,2026-01-29T09:48:03.525Z,0.3711,-0.2266,-1.7852
2026-01-29 16:48:04.029,2026-01-29T09:48:03.535Z,0.4004,-0.4473,-1.7754
2026-01-29 16:48:04.057,2026-01-29T09:48:03.545Z,0.3184,-0.5684,-1.6660
2026-01-29 16:48:04.058,2026-01-29T09:48:03.555Z,0.2461,-0.5469,-1.5176
2026-01-29 16:48:04.058,2026-01-29T09:48:03.565Z,0.2617,-0.4668,-1.3496
2026-01-29 16:48:04.085,2026-01-29T09:48:03.575Z,0.3477,-0.4785,-1.1680
2026-01-29 16:48:04.146,2026-01-29T09:48:03.585Z,0.4043,-0.5410,-0.9531
2026-01-29 16:48:04.206,2026-01-29T09:48:03.595Z,0.3828,-0.4453,-0.6758
2026-01-29 16:48:04.208,2026-01-29T09:48:03.605Z,0.3047,-0.0742,-0.3008
2026-01-29 16:48:04.209,2026-01-29T09:48:03.615Z,0.1855,0.2695,0.1016
2026-01-29 16:48:04.209,2026-01-29T09:48:03.625Z,0.0273,0.4336,0.5098
2026-01-29 16:48:04.209,2026-01-29T09:48:03.635Z,-0.0918,0.4336,0.8984
2026-01-29 16:48:04.209,2026-01-29T09:48:03.645Z,-0.1562,0.2227,1.1934
2026-01-29 16:48:04.211,2026-01-29T09:48:03.655Z,-0.2637,-0.2168,1.3984
2026-01-29 16:48:04.211,2026-01-29T09:48:03.665Z,-0.4434,-0.7246,1.5469
2026-01-29 16:48:04.211,2026-01-29T09:48:03.675Z,-0.6035,-1.1719,1.6758
2026-01-29 16:48:04.237,2026-01-29T09:48:03.685Z,-0.7305,-1.6680,1.7520
2026-01-29 16:48:04.238,2026-01-29T09:48:03.695Z,-0.8633,-2.1562,1.8223
2026-01-29 16:48:04.238,2026-01-29T09:48:03.705Z,-0.9707,-2.4766,1.9277
2026-01-29 16:48:04.239,2026-01-29T09:48:03.715Z,-1.0098,-2.5859,2.0977
2026-01-29 16:48:04.239,2026-01-29T09:48:03.725Z,-0.9863,-2.4922,2.2656
2026-01-29 16:48:04.239,2026-01-29T09:48:03.735Z,-0.9102,-2.2852,2.4043
2026-01-29 16:48:04.239,2026-01-29T09:48:03.745Z,-0.8555,-1.8652,2.4922
2026-01-29 16:48:04.298,2026-01-29T09:48:03.755Z,-0.7930,-1.2441,2.5430
2026-01-29 16:48:04.299,2026-01-29T09:48:03.765Z,-0.7285,-0.5879,2.5820
2026-01-29 16:48:04.299,2026-01-29T09:48:03.775Z,-0.6191,0.0449,2.6250
2026-01-29 16:48:04.299,2026-01-29T09:48:03.785Z,-0.5488,0.6250,2.6172
2026-01-29 16:48:04.299,2026-01-29T09:48:03.795Z,-0.5859,0.9941,2.5547
2026-01-29 16:48:04.299,2026-01-29T09:48:03.805Z,-0.6582,1.1465,2.4512
2026-01-29 16:48:04.326,2026-01-29T09:48:03.815Z,-0.7656,1.1348,2.2773
2026-01-29 16:48:04.416,2026-01-29T09:48:03.825Z,-0.8262,1.0469,2.1211
2026-01-29 16:48:04.418,2026-01-29T09:48:03.835Z,-0.8516,0.7129,1.8828
2026-01-29 16:48:04.419,2026-01-29T09:48:03.845Z,-0.8750,0.3574,1.6484
2026-01-29 16:48:04.419,2026-01-29T09:48:03.855Z,-0.8730,0.1797,1.4492
2026-01-29 16:48:04.419,2026-01-29T09:48:03.865Z,-0.8301,0.0820,1.2793
2026-01-29 16:48:04.422,2026-01-29T09:48:03.875Z,-0.7227,-0.0039,1.1113
2026-01-29 16:48:04.422,2026-01-29T09:48:03.885Z,-0.6309,0.0195,0.9258
2026-01-29 16:48:04.422,2026-01-29T09:48:03.895Z,-0.5195,0.1211,0.7109
2026-01-29 16:48:04.422,2026-01-29T09:48:03.905Z,-0.3184,0.1875,0.4180
2026-01-29 16:48:04.475,2026-01-29T09:48:03.915Z,-0.0820,0.2363,0.0430
2026-01-29 16:48:04.477,2026-01-29T09:48:03.925Z,0.1211,0.2539,-0.3535
2026-01-29 16:48:04.477,2026-01-29T09:48:03.935Z,0.3008,0.1953,-0.6895
2026-01-29 16:48:04.477,2026-01-29T09:48:03.945Z,0.4512,0.1504,-0.8633
2026-01-29 16:48:04.505,2026-01-29T09:48:03.955Z,0.5156,0.1250,-0.7754
2026-01-29 16:48:04.507,2026-01-29T09:48:03.965Z,0.4434,0.1875,-0.4727
2026-01-29 16:48:04.507,2026-01-29T09:48:03.975Z,0.2734,0.1172,-0.0547
2026-01-29 16:48:04.566,2026-01-29T09:48:03.985Z,0.1074,-0.2988,0.2910
2026-01-29 16:48:04.568,2026-01-29T09:48:03.995Z,-0.1523,-0.8047,0.3906
2026-01-29 16:48:04.569,2026-01-29T09:48:04.005Z,-0.3809,-1.1016,0.2324
2026-01-29 16:48:04.569,2026-01-29T09:48:04.015Z,-0.2480,-1.3281,-0.0605
2026-01-29 16:48:04.569,2026-01-29T09:48:04.025Z,-0.0195,-1.4844,-0.3906
2026-01-29 16:48:04.569,2026-01-29T09:48:04.035Z,-0.0059,-0.9980,-0.4375
2026-01-29 16:48:04.571,2026-01-29T09:48:04.045Z,-0.0059,-0.0469,-0.1562
2026-01-29 16:48:04.571,2026-01-29T09:48:04.055Z,-0.0371,0.6152,0.1133
2026-01-29 16:48:04.571,2026-01-29T09:48:04.065Z,-0.1523,1.0684,0.2617
2026-01-29 16:48:04.597,2026-01-29T09:48:04.075Z,-0.1484,1.3613,0.2695
2026-01-29 16:48:04.626,2026-01-29T09:48:04.085Z,-0.0078,1.3027,0.1523
2026-01-29 16:48:04.627,2026-01-29T09:48:04.095Z,0.0781,0.8809,0.0059
2026-01-29 16:48:04.627,2026-01-29T09:48:04.105Z,-0.0039,0.4004,-0.0801
2026-01-29 16:48:04.655,2026-01-29T09:48:04.115Z,-0.1016,0.1172,-0.0684
2026-01-29 16:48:04.657,2026-01-29T09:48:04.125Z,-0.1387,-0.1328,-0.0527
2026-01-29 16:48:04.657,2026-01-29T09:48:04.135Z,-0.1445,-0.4297,-0.0879
2026-01-29 16:48:04.658,2026-01-29T09:48:04.145Z,-0.1387,-0.5879,-0.1367
2026-01-29 16:48:04.658,2026-01-29T09:48:04.155Z,-0.1348,-0.6133,-0.1758
2026-01-29 16:48:04.660,2026-01-29T09:48:04.165Z,-0.0938,-0.5566,-0.2148
2026-01-29 16:48:04.687,2026-01-29T09:48:04.175Z,-0.0430,-0.3301,-0.1914
2026-01-29 16:48:04.688,2026-01-29T09:48:04.185Z,-0.0078,-0.0898,-0.1367
2026-01-29 16:48:04.688,2026-01-29T09:48:04.195Z,0.0527,0.1211,-0.0879
2026-01-29 16:48:04.776,2026-01-29T09:48:04.205Z,0.0879,0.2168,-0.0957
2026-01-29 16:48:04.778,2026-01-29T09:48:04.215Z,0.0898,0.2129,-0.1309
2026-01-29 16:48:04.778,2026-01-29T09:48:04.225Z,0.0879,0.1367,-0.1445
2026-01-29 16:48:04.779,2026-01-29T09:48:04.235Z,0.0977,0.0566,-0.1445
2026-01-29 16:48:04.779,2026-01-29T09:48:04.245Z,0.1211,0.0176,-0.1406
2026-01-29 16:48:04.779,2026-01-29T09:48:04.255Z,0.1348,-0.0039,-0.1309
2026-01-29 16:48:04.780,2026-01-29T09:48:04.265Z,0.1543,0.0293,-0.1152
2026-01-29 16:48:04.780,2026-01-29T09:48:04.275Z,0.1719,0.0859,-0.1328
2026-01-29 16:48:04.780,2026-01-29T09:48:04.285Z,0.1758,0.1289,-0.1445
2026-01-29 16:48:04.808,2026-01-29T09:48:04.295Z,0.2031,0.2168,-0.1543
2026-01-29 16:48:04.809,2026-01-29T09:48:04.305Z,0.2207,0.2891,-0.1680
2026-01-29 16:48:04.809,2026-01-29T09:48:04.315Z,0.2148,0.2363,-0.1797
2026-01-29 16:48:04.837,2026-01-29T09:48:04.325Z,0.2246,0.1621,-0.1738
2026-01-29 16:48:04.838,2026-01-29T09:48:04.335Z,0.2285,0.0605,-0.2031
2026-01-29 16:48:04.838,2026-01-29T09:48:04.345Z,0.2344,0.0059,-0.2441
2026-01-29 16:48:04.867,2026-01-29T09:48:04.355Z,0.2461,-0.0293,-0.2715
2026-01-29 16:48:04.868,2026-01-29T09:48:04.365Z,0.2617,-0.0605,-0.2891
2026-01-29 16:48:04.868,2026-01-29T09:48:04.375Z,0.2812,-0.0742,-0.3340
2026-01-29 16:48:04.895,2026-01-29T09:48:04.385Z,0.3066,-0.0312,-0.3613
2026-01-29 16:48:04.898,2026-01-29T09:48:04.395Z,0.3438,0.0566,-0.3711
2026-01-29 16:48:04.898,2026-01-29T09:48:04.405Z,0.3730,0.1445,-0.3984
2026-01-29 16:48:04.927,2026-01-29T09:48:04.415Z,0.4199,0.2539,-0.4395
2026-01-29 16:48:04.928,2026-01-29T09:48:04.425Z,0.4609,0.3184,-0.4922
2026-01-29 16:48:04.928,2026-01-29T09:48:04.435Z,0.4805,0.3125,-0.5371
2026-01-29 16:48:04.985,2026-01-29T09:48:04.445Z,0.5117,0.3066,-0.5840
2026-01-29 16:48:04.987,2026-01-29T09:48:04.455Z,0.5605,0.2832,-0.6465
2026-01-29 16:48:04.987,2026-01-29T09:48:04.465Z,0.6016,0.2930,-0.7207
2026-01-29 16:48:04.988,2026-01-29T09:48:04.475Z,0.6523,0.3145,-0.7852
2026-01-29 16:48:04.989,2026-01-29T09:48:04.485Z,0.7246,0.3145,-0.8574
2026-01-29 16:48:04.989,2026-01-29T09:48:04.495Z,0.7988,0.2988,-0.9375
2026-01-29 16:48:05.045,2026-01-29T09:48:04.505Z,0.8730,0.2891,-1.0254
2026-01-29 16:48:05.047,2026-01-29T09:48:04.515Z,0.8984,0.3457,-1.0977
2026-01-29 16:48:05.048,2026-01-29T09:48:04.525Z,0.9023,0.4297,-1.1641
2026-01-29 16:48:05.048,2026-01-29T09:48:04.535Z,0.8691,0.5156,-1.2148
2026-01-29 16:48:05.049,2026-01-29T09:48:04.545Z,0.8379,0.6211,-1.2793
2026-01-29 16:48:05.049,2026-01-29T09:48:04.555Z,0.8340,0.7324,-1.3320
2026-01-29 16:48:05.077,2026-01-29T09:48:04.565Z,0.8047,0.7910,-1.3926
2026-01-29 16:48:05.078,2026-01-29T09:48:04.575Z,0.7559,0.7344,-1.4668
2026-01-29 16:48:05.078,2026-01-29T09:48:04.585Z,0.7676,0.6445,-1.5352
2026-01-29 16:48:05.105,2026-01-29T09:48:04.595Z,0.8066,0.5234,-1.5820
2026-01-29 16:48:05.107,2026-01-29T09:48:04.605Z,0.7969,0.4688,-1.5703
2026-01-29 16:48:05.107,2026-01-29T09:48:04.615Z,0.7598,0.3750,-1.5293
2026-01-29 16:48:05.135,2026-01-29T09:48:04.625Z,0.6680,0.2773,-1.4492
2026-01-29 16:48:05.167,2026-01-29T09:48:04.635Z,0.6562,0.0859,-1.4082
2026-01-29 16:48:05.168,2026-01-29T09:48:04.645Z,0.7246,-0.3184,-1.4180
2026-01-29 16:48:05.168,2026-01-29T09:48:04.655Z,0.7363,-0.5840,-1.3965
2026-01-29 16:48:05.168,2026-01-29T09:48:04.665Z,0.6719,-0.8047,-1.2520
2026-01-29 16:48:05.169,2026-01-29T09:48:04.675Z,0.5117,-1.1602,-1.0605
2026-01-29 16:48:05.197,2026-01-29T09:48:04.685Z,0.2480,-1.4199,-0.8340
2026-01-29 16:48:05.198,2026-01-29T09:48:04.695Z,0.0566,-1.3262,-0.5371
2026-01-29 16:48:05.198,2026-01-29T09:48:04.705Z,-0.0098,-1.1348,-0.2617
2026-01-29 16:48:05.225,2026-01-29T09:48:04.715Z,-0.0566,-1.1309,-0.0879
2026-01-29 16:48:05.227,2026-01-29T09:48:04.725Z,-0.1191,-1.0254,0.0977
2026-01-29 16:48:05.227,2026-01-29T09:48:04.735Z,-0.1562,-0.7363,0.3320
2026-01-29 16:48:05.255,2026-01-29T09:48:04.745Z,-0.1855,-0.5488,0.5312
2026-01-29 16:48:05.257,2026-01-29T09:48:04.755Z,-0.2480,-0.5039,0.6973
2026-01-29 16:48:05.257,2026-01-29T09:48:04.765Z,-0.3379,-0.4902,0.8633
2026-01-29 16:48:05.285,2026-01-29T09:48:04.775Z,-0.4121,-0.5078,1.0449
2026-01-29 16:48:05.287,2026-01-29T09:48:04.785Z,-0.4883,-0.5879,1.2012
2026-01-29 16:48:05.287,2026-01-29T09:48:04.795Z,-0.5645,-0.6230,1.3398
2026-01-29 16:48:05.315,2026-01-29T09:48:04.805Z,-0.6211,-0.5605,1.4844
2026-01-29 16:48:05.317,2026-01-29T09:48:04.815Z,-0.6484,-0.4922,1.6250
2026-01-29 16:48:05.317,2026-01-29T09:48:04.825Z,-0.7031,-0.5195,1.8359
2026-01-29 16:48:05.345,2026-01-29T09:48:04.835Z,-0.7031,-0.5195,1.8359
2026-01-29 16:48:05.347,2026-01-29T09:48:04.845Z,-0.7422,-0.5977,1.9355
2026-01-29 16:48:05.347,2026-01-29T09:48:04.855Z,-0.7969,-0.7051,2.0234
2026-01-29 16:48:05.466,2026-01-29T09:48:04.865Z,-0.8262,-1.0742,2.0312
2026-01-29 16:48:05.467,2026-01-29T09:48:04.875Z,-0.8086,-1.2129,1.9297
2026-01-29 16:48:05.467,2026-01-29T09:48:04.885Z,-0.7773,-1.2031,1.8262
2026-01-29 16:48:05.468,2026-01-29T09:48:04.895Z,-0.7051,-0.9902,1.7656
2026-01-29 16:48:05.469,2026-01-29T09:48:04.905Z,-0.6016,-0.6582,1.7500
2026-01-29 16:48:05.469,2026-01-29T09:48:04.915Z,-0.5156,-0.3887,1.7207
2026-01-29 16:48:05.469,2026-01-29T09:48:04.925Z,-0.4609,-0.2734,1.6816
2026-01-29 16:48:05.470,2026-01-29T09:48:04.935Z,-0.4805,-0.2246,1.6211
2026-01-29 16:48:05.470,2026-01-29T09:48:04.945Z,-0.4805,-0.2246,1.6211
2026-01-29 16:48:05.496,2026-01-29T09:48:04.955Z,-0.5586,-0.2148,1.5430
2026-01-29 16:48:05.497,2026-01-29T09:48:04.965Z,-0.6191,-0.3984,1.2676
2026-01-29 16:48:05.497,2026-01-29T09:48:04.975Z,-0.5957,-0.5059,1.0938
2026-01-29 16:48:05.498,2026-01-29T09:48:04.985Z,-0.5840,-0.4590,0.9688
2026-01-29 16:48:05.498,2026-01-29T09:48:04.995Z,-0.5254,-0.3086,0.8945
2026-01-29 16:48:05.498,2026-01-29T09:48:05.005Z,-0.4219,-0.1348,0.8047
2026-01-29 16:48:05.526,2026-01-29T09:48:05.015Z,-0.3223,-0.0469,0.6934
2026-01-29 16:48:05.527,2026-01-29T09:48:05.025Z,-0.2832,-0.0547,0.5859
2026-01-29 16:48:05.527,2026-01-29T09:48:05.035Z,-0.2812,-0.1465,0.5000
2026-01-29 16:48:05.585,2026-01-29T09:48:05.045Z,-0.2930,-0.2793,0.4121
2026-01-29 16:48:05.587,2026-01-29T09:48:05.055Z,-0.3008,-0.3887,0.3203
2026-01-29 16:48:05.587,2026-01-29T09:48:05.065Z,-0.2715,-0.5410,0.1973
2026-01-29 16:48:05.587,2026-01-29T09:48:05.075Z,-0.2148,-0.6289,0.0723
2026-01-29 16:48:05.615,2026-01-29T09:48:05.086Z,-0.1250,-0.6035,-0.0527
2026-01-29 16:48:05.617,2026-01-29T09:48:05.096Z,-0.0176,-0.5488,-0.1797
2026-01-29 16:48:05.618,2026-01-29T09:48:05.106Z,0.0664,-0.4512,-0.3203
2026-01-29 16:48:05.618,2026-01-29T09:48:05.116Z,0.1914,-0.2773,-0.4453
2026-01-29 16:48:05.618,2026-01-29T09:48:05.126Z,0.3125,-0.0547,-0.5156
2026-01-29 16:48:05.645,2026-01-29T09:48:05.137Z,0.4102,0.0820,-0.4766
2026-01-29 16:48:05.647,2026-01-29T09:48:05.147Z,0.4219,0.0801,-0.3359
2026-01-29 16:48:05.647,2026-01-29T09:48:05.157Z,0.2500,0.0684,-0.1562
2026-01-29 16:48:05.675,2026-01-29T09:48:05.167Z,0.0254,0.0078,-0.0527
2026-01-29 16:48:05.677,2026-01-29T09:48:05.177Z,-0.0586,-0.1738,-0.1289
2026-01-29 16:48:05.677,2026-01-29T09:48:05.187Z,-0.0469,-0.3613,-0.3066
2026-01-29 16:48:05.705,2026-01-29T09:48:05.197Z,0.0312,-0.4824,-0.4023
2026-01-29 16:48:05.707,2026-01-29T09:48:05.207Z,0.0762,-0.4824,-0.3691
2026-01-29 16:48:05.707,2026-01-29T09:48:05.217Z,0.1152,-0.2207,-0.2598
2026-01-29 16:48:05.735,2026-01-29T09:48:05.227Z,0.1387,0.1250,-0.1699
2026-01-29 16:48:05.737,2026-01-29T09:48:05.237Z,0.1172,0.3184,-0.1777
2026-01-29 16:48:05.737,2026-01-29T09:48:05.247Z,0.1094,0.4023,-0.1855
2026-01-29 16:48:05.765,2026-01-29T09:48:05.257Z,0.0898,0.4844,-0.1445
2026-01-29 16:48:05.795,2026-01-29T09:48:05.267Z,0.0820,0.4355,-0.1133
2026-01-29 16:48:05.797,2026-01-29T09:48:05.277Z,0.0430,0.2676,-0.1055
2026-01-29 16:48:05.797,2026-01-29T09:48:05.287Z,0.0215,0.1387,-0.1250
2026-01-29 16:48:05.797,2026-01-29T09:48:05.297Z,0.0371,0.1230,-0.1172
2026-01-29 16:48:05.798,2026-01-29T09:48:05.307Z,0.0430,0.1387,-0.1152
2026-01-29 16:48:05.826,2026-01-29T09:48:05.317Z,0.0039,0.0605,-0.0938
2026-01-29 16:48:05.828,2026-01-29T09:48:05.327Z,-0.0469,-0.0723,-0.1016
2026-01-29 16:48:05.828,2026-01-29T09:48:05.337Z,-0.0742,-0.1602,-0.1484
2026-01-29 16:48:05.915,2026-01-29T09:48:05.347Z,-0.0762,-0.2676,-0.1836
2026-01-29 16:48:05.917,2026-01-29T09:48:05.357Z,-0.0586,-0.3926,-0.2031
2026-01-29 16:48:05.918,2026-01-29T09:48:05.367Z,-0.0312,-0.3848,-0.1602
2026-01-29 16:48:05.945,2026-01-29T09:48:05.377Z,-0.0176,-0.3027,-0.1074
2026-01-29 16:48:05.947,2026-01-29T09:48:05.387Z,0.0156,-0.2266,-0.0879
2026-01-29 16:48:05.947,2026-01-29T09:48:05.397Z,0.0332,-0.1387,-0.1152
2026-01-29 16:48:05.948,2026-01-29T09:48:05.407Z,0.0703,-0.0156,-0.1074
2026-01-29 16:48:05.948,2026-01-29T09:48:05.417Z,0.0898,0.0488,-0.0977
2026-01-29 16:48:05.976,2026-01-29T09:48:05.427Z,0.0859,0.0586,-0.0703
2026-01-29 16:48:05.979,2026-01-29T09:48:05.437Z,0.1016,0.1348,-0.0195
2026-01-29 16:48:05.979,2026-01-29T09:48:05.447Z,0.1445,0.1816,-0.0293
2026-01-29 16:48:05.979,2026-01-29T09:48:05.457Z,0.1660,0.2402,-0.0371
2026-01-29 16:48:05.979,2026-01-29T09:48:05.467Z,0.1816,0.3008,-0.0371
2026-01-29 16:48:05.979,2026-01-29T09:48:05.477Z,0.1836,0.2852,-0.0527
2026-01-29 16:48:05.980,2026-01-29T09:48:05.487Z,0.1680,0.2402,-0.0664
2026-01-29 16:48:06.007,2026-01-29T09:48:05.497Z,0.1602,0.2285,-0.0664
2026-01-29 16:48:06.008,2026-01-29T09:48:05.507Z,0.1797,0.1797,-0.0801
2026-01-29 16:48:06.008,2026-01-29T09:48:05.517Z,0.1953,0.1270,-0.1172
2026-01-29 16:48:06.035,2026-01-29T09:48:05.527Z,0.2168,0.1289,-0.1445
2026-01-29 16:48:06.037,2026-01-29T09:48:05.537Z,0.2207,0.1543,-0.1543
2026-01-29 16:48:06.037,2026-01-29T09:48:05.547Z,0.2422,0.1348,-0.1797
2026-01-29 16:48:06.065,2026-01-29T09:48:05.557Z,0.2656,0.1016,-0.2168
2026-01-29 16:48:06.067,2026-01-29T09:48:05.567Z,0.2930,0.1035,-0.2383
2026-01-29 16:48:06.067,2026-01-29T09:48:05.577Z,0.3359,0.1016,-0.2637
2026-01-29 16:48:06.095,2026-01-29T09:48:05.587Z,0.3770,0.1289,-0.2988
2026-01-29 16:48:06.098,2026-01-29T09:48:05.597Z,0.4297,0.1973,-0.3418
2026-01-29 16:48:06.098,2026-01-29T09:48:05.607Z,0.4707,0.2539,-0.3828
2026-01-29 16:48:06.128,2026-01-29T09:48:05.617Z,0.5000,0.3164,-0.4434
2026-01-29 16:48:06.128,2026-01-29T09:48:05.627Z,0.5469,0.3379,-0.5156
2026-01-29 16:48:06.128,2026-01-29T09:48:05.637Z,0.6133,0.3125,-0.5938
2026-01-29 16:48:06.186,2026-01-29T09:48:05.647Z,0.6855,0.3047,-0.6758
2026-01-29 16:48:06.188,2026-01-29T09:48:05.657Z,0.7461,0.3262,-0.7324
2026-01-29 16:48:06.188,2026-01-29T09:48:05.667Z,0.7832,0.3262,-0.7949
2026-01-29 16:48:06.188,2026-01-29T09:48:05.677Z,0.8477,0.3223,-0.8672
2026-01-29 16:48:06.188,2026-01-29T09:48:05.687Z,0.9395,0.3262,-0.9355
2026-01-29 16:48:06.188,2026-01-29T09:48:05.697Z,0.9941,0.2598,-1.0000
2026-01-29 16:48:06.219,2026-01-29T09:48:05.707Z,1.0254,0.2031,-1.0801
2026-01-29 16:48:06.219,2026-01-29T09:48:05.717Z,1.0645,0.2891,-1.1621
2026-01-29 16:48:06.219,2026-01-29T09:48:05.727Z,1.0469,0.4824,-1.2207
2026-01-29 16:48:06.275,2026-01-29T09:48:05.737Z,0.9609,0.6270,-1.2793
2026-01-29 16:48:06.277,2026-01-29T09:48:05.747Z,0.9375,0.7969,-1.3203
2026-01-29 16:48:06.278,2026-01-29T09:48:05.757Z,0.9863,1.0078,-1.3516
2026-01-29 16:48:06.278,2026-01-29T09:48:05.767Z,0.9824,0.9668,-1.4023
2026-01-29 16:48:06.278,2026-01-29T09:48:05.777Z,0.9609,0.8398,-1.4727
2026-01-29 16:48:06.279,2026-01-29T09:48:05.787Z,0.9863,0.7871,-1.5098
2026-01-29 16:48:06.308,2026-01-29T09:48:05.797Z,1.0215,0.6699,-1.4980
2026-01-29 16:48:06.308,2026-01-29T09:48:05.807Z,1.0195,0.4883,-1.4707
2026-01-29 16:48:06.309,2026-01-29T09:48:05.817Z,0.9688,0.2656,-1.4414
2026-01-29 16:48:06.339,2026-01-29T09:48:05.827Z,0.9102,0.0039,-1.4062
2026-01-29 16:48:06.340,2026-01-29T09:48:05.837Z,0.8457,-0.2363,-1.3555
2026-01-29 16:48:06.340,2026-01-29T09:48:05.847Z,0.8145,-0.4648,-1.2793
2026-01-29 16:48:06.368,2026-01-29T09:48:05.857Z,0.7949,-0.8184,-1.1875
2026-01-29 16:48:06.369,2026-01-29T09:48:05.867Z,0.7031,-1.2734,-1.0762
2026-01-29 16:48:06.369,2026-01-29T09:48:05.877Z,0.5195,-1.4883,-0.8750
2026-01-29 16:48:06.397,2026-01-29T09:48:05.887Z,0.3848,-1.4004,-0.5859
2026-01-29 16:48:06.398,2026-01-29T09:48:05.897Z,0.3008,-1.3418,-0.3125
2026-01-29 16:48:06.398,2026-01-29T09:48:05.907Z,0.1855,-1.4395,-0.1133
2026-01-29 16:48:06.425,2026-01-29T09:48:05.917Z,0.0469,-1.4648,0.0586
2026-01-29 16:48:06.427,2026-01-29T09:48:05.927Z,-0.0703,-1.3809,0.2422
2026-01-29 16:48:06.427,2026-01-29T09:48:05.937Z,-0.1621,-1.3262,0.4160
2026-01-29 16:48:06.485,2026-01-29T09:48:05.947Z,-0.2285,-1.2324,0.5938
2026-01-29 16:48:06.486,2026-01-29T09:48:05.957Z,-0.2637,-1.0723,0.8125
2026-01-29 16:48:06.487,2026-01-29T09:48:05.967Z,-0.2949,-0.9883,1.0098
2026-01-29 16:48:06.545,2026-01-29T09:48:05.977Z,-0.3340,-0.9414,1.1758
2026-01-29 16:48:06.547,2026-01-29T09:48:05.987Z,-0.3477,-0.8398,1.3223
2026-01-29 16:48:06.548,2026-01-29T09:48:05.997Z,-0.3477,-0.7207,1.4551
2026-01-29 16:48:06.548,2026-01-29T09:48:06.007Z,-0.3438,-0.6562,1.5430
2026-01-29 16:48:06.548,2026-01-29T09:48:06.017Z,-0.3848,-0.6289,1.6035
2026-01-29 16:48:06.549,2026-01-29T09:48:06.027Z,-0.4629,-0.6211,1.6680
2026-01-29 16:48:06.549,2026-01-29T09:48:06.037Z,-0.5176,-0.6348,1.7402
2026-01-29 16:48:06.549,2026-01-29T09:48:06.047Z,-0.5352,-0.6914,1.7793
2026-01-29 16:48:06.551,2026-01-29T09:48:06.057Z,-0.5547,-0.7324,1.8047
2026-01-29 16:48:06.578,2026-01-29T09:48:06.067Z,-0.5684,-0.7617,1.8066
2026-01-29 16:48:06.578,2026-01-29T09:48:06.077Z,-0.6211,-0.8320,1.7910
2026-01-29 16:48:06.578,2026-01-29T09:48:06.087Z,-0.6621,-0.9316,1.7676
2026-01-29 16:48:06.606,2026-01-29T09:48:06.097Z,-0.7031,-0.9668,1.7656
2026-01-29 16:48:06.607,2026-01-29T09:48:06.107Z,-0.7051,-0.9980,1.7598
2026-01-29 16:48:06.635,2026-01-29T09:48:06.117Z,-0.7109,-1.0430,1.7051
2026-01-29 16:48:06.637,2026-01-29T09:48:06.127Z,-0.7734,-0.9707,1.6621
2026-01-29 16:48:06.638,2026-01-29T09:48:06.137Z,-0.8281,-0.8887,1.6328
2026-01-29 16:48:06.638,2026-01-29T09:48:06.147Z,-0.8555,-0.8516,1.5781
2026-01-29 16:48:06.667,2026-01-29T09:48:06.157Z,-0.8848,-0.7402,1.5273
2026-01-29 16:48:06.668,2026-01-29T09:48:06.167Z,-0.9082,-0.6113,1.4785
2026-01-29 16:48:06.668,2026-01-29T09:48:06.177Z,-0.9102,-0.4883,1.4277
2026-01-29 16:48:06.697,2026-01-29T09:48:06.187Z,-0.8984,-0.3223,1.4004
2026-01-29 16:48:06.697,2026-01-29T09:48:06.197Z,-0.8672,-0.1582,1.3809
2026-01-29 16:48:06.698,2026-01-29T09:48:06.207Z,-0.8262,-0.1074,1.3008
2026-01-29 16:48:06.727,2026-01-29T09:48:06.217Z,-0.8555,-0.0195,1.2031
2026-01-29 16:48:06.728,2026-01-29T09:48:06.227Z,-0.8672,0.0781,1.1191
2026-01-29 16:48:06.728,2026-01-29T09:48:06.237Z,-0.8438,0.1406,1.0254
2026-01-29 16:48:06.755,2026-01-29T09:48:06.247Z,-0.8203,0.1426,0.9258
2026-01-29 16:48:06.756,2026-01-29T09:48:06.257Z,-0.7891,0.0586,0.8105
2026-01-29 16:48:06.785,2026-01-29T09:48:06.267Z,-0.7246,-0.0039,0.6973
2026-01-29 16:48:06.787,2026-01-29T09:48:06.277Z,-0.6543,-0.0469,0.5801
2026-01-29 16:48:06.787,2026-01-29T09:48:06.287Z,-0.5957,-0.0605,0.4629
2026-01-29 16:48:06.787,2026-01-29T09:48:06.297Z,-0.5254,-0.0566,0.3496
2026-01-29 16:48:06.815,2026-01-29T09:48:06.307Z,-0.4395,-0.0508,0.2461
2026-01-29 16:48:06.817,2026-01-29T09:48:06.317Z,-0.3672,-0.0605,0.1309
2026-01-29 16:48:06.817,2026-01-29T09:48:06.327Z,-0.2910,-0.1426,0.0078
2026-01-29 16:48:06.846,2026-01-29T09:48:06.337Z,-0.1953,-0.2676,-0.1289
2026-01-29 16:48:06.848,2026-01-29T09:48:06.347Z,-0.0762,-0.3867,-0.2793
2026-01-29 16:48:06.848,2026-01-29T09:48:06.357Z,0.0332,-0.4473,-0.4434
2026-01-29 16:48:06.878,2026-01-29T09:48:06.367Z,0.1758,-0.4473,-0.5723
2026-01-29 16:48:06.878,2026-01-29T09:48:06.377Z,0.3164,-0.4258,-0.6367
2026-01-29 16:48:06.878,2026-01-29T09:48:06.387Z,0.4316,-0.5000,-0.6035
2026-01-29 16:48:06.905,2026-01-29T09:48:06.397Z,0.4375,-0.5488,-0.5059
2026-01-29 16:48:06.907,2026-01-29T09:48:06.407Z,0.3027,-0.5156,-0.3574
2026-01-29 16:48:06.907,2026-01-29T09:48:06.417Z,0.1582,-0.5195,-0.2266
2026-01-29 16:48:07.026,2026-01-29T09:48:06.427Z,0.0430,-0.5195,-0.1973
2026-01-29 16:48:07.028,2026-01-29T09:48:06.437Z,-0.0430,-0.4824,-0.2617
2026-01-29 16:48:07.028,2026-01-29T09:48:06.447Z,-0.0547,-0.4082,-0.3477
2026-01-29 16:48:07.029,2026-01-29T09:48:06.457Z,0.0156,-0.3301,-0.4062
2026-01-29 16:48:07.029,2026-01-29T09:48:06.467Z,0.0684,-0.2539,-0.4062
2026-01-29 16:48:07.029,2026-01-29T09:48:06.477Z,0.0527,0.0449,-0.2891
2026-01-29 16:48:07.085,2026-01-29T09:48:06.487Z,0.0664,0.4590,-0.1172
2026-01-29 16:48:07.115,2026-01-29T09:48:06.497Z,0.0898,0.6699,-0.0449
2026-01-29 16:48:07.117,2026-01-29T09:48:06.507Z,0.0508,0.6914,-0.0645
2026-01-29 16:48:07.117,2026-01-29T09:48:06.517Z,0.0156,0.6719,-0.0820
2026-01-29 16:48:07.118,2026-01-29T09:48:06.527Z,0.0645,0.5586,-0.1113
2026-01-29 16:48:07.118,2026-01-29T09:48:06.537Z,0.1016,0.3516,-0.1523
2026-01-29 16:48:07.119,2026-01-29T09:48:06.547Z,0.0957,0.1348,-0.1680
2026-01-29 16:48:07.119,2026-01-29T09:48:06.557Z,0.0645,-0.0742,-0.1621
2026-01-29 16:48:07.119,2026-01-29T09:48:06.567Z,0.0020,-0.2305,-0.1582
2026-01-29 16:48:07.121,2026-01-29T09:48:06.577Z,-0.0391,-0.3457,-0.1719
2026-01-29 16:48:07.147,2026-01-29T09:48:06.587Z,-0.0195,-0.4258,-0.1973
2026-01-29 16:48:07.148,2026-01-29T09:48:06.597Z,0.0020,-0.4219,-0.1914
2026-01-29 16:48:07.148,2026-01-29T09:48:06.607Z,-0.0176,-0.3242,-0.1562
2026-01-29 16:48:07.148,2026-01-29T09:48:06.617Z,-0.0410,-0.2422,-0.1309
2026-01-29 16:48:07.149,2026-01-29T09:48:06.627Z,-0.0352,-0.2168,-0.1387
2026-01-29 16:48:07.149,2026-01-29T09:48:06.637Z,-0.0215,-0.1816,-0.1602
2026-01-29 16:48:07.149,2026-01-29T09:48:06.647Z,-0.0059,-0.1895,-0.1562
2026-01-29 16:48:07.149,2026-01-29T09:48:06.657Z,-0.0078,-0.2168,-0.1270
2026-01-29 16:48:07.179,2026-01-29T09:48:06.667Z,-0.0352,-0.2227,-0.1250
2026-01-29 16:48:07.209,2026-01-29T09:48:06.677Z,-0.0332,-0.2344,-0.1504
2026-01-29 16:48:07.268,2026-01-29T09:48:06.687Z,-0.0059,-0.2344,-0.1875
2026-01-29 16:48:07.269,2026-01-29T09:48:06.697Z,0.0254,-0.1816,-0.1953
2026-01-29 16:48:07.269,2026-01-29T09:48:06.707Z,0.0742,-0.0547,-0.1836
2026-01-29 16:48:07.269,2026-01-29T09:48:06.717Z,0.0879,0.0859,-0.1719
2026-01-29 16:48:07.270,2026-01-29T09:48:06.727Z,0.0996,0.1777,-0.1543
2026-01-29 16:48:07.270,2026-01-29T09:48:06.737Z,0.1230,0.2363,-0.1504
2026-01-29 16:48:07.270,2026-01-29T09:48:06.747Z,0.1582,0.2559,-0.1582
2026-01-29 16:48:07.270,2026-01-29T09:48:06.757Z,0.1758,0.2695,-0.1484
2026-01-29 16:48:07.270,2026-01-29T09:48:06.767Z,0.1934,0.2871,-0.1289
2026-01-29 16:48:07.356,2026-01-29T09:48:06.777Z,0.2031,0.2988,-0.1074
2026-01-29 16:48:07.359,2026-01-29T09:48:06.787Z,0.1973,0.2617,-0.1035
2026-01-29 16:48:07.359,2026-01-29T09:48:06.797Z,0.1875,0.1875,-0.1250
2026-01-29 16:48:07.359,2026-01-29T09:48:06.807Z,0.1992,0.0938,-0.1387
2026-01-29 16:48:07.360,2026-01-29T09:48:06.817Z,0.2051,0.0273,-0.1484
2026-01-29 16:48:07.360,2026-01-29T09:48:06.827Z,0.2227,-0.0078,-0.1562
2026-01-29 16:48:07.361,2026-01-29T09:48:06.837Z,0.2266,0.0039,-0.1602
2026-01-29 16:48:07.361,2026-01-29T09:48:06.847Z,0.2227,0.0312,-0.1582
2026-01-29 16:48:07.388,2026-01-29T09:48:06.857Z,0.2305,0.0312,-0.1719
2026-01-29 16:48:07.418,2026-01-29T09:48:06.867Z,0.2383,-0.0117,-0.2031
2026-01-29 16:48:07.419,2026-01-29T09:48:06.877Z,0.2520,-0.0508,-0.2246
2026-01-29 16:48:07.419,2026-01-29T09:48:06.887Z,0.2617,-0.0801,-0.2363
2026-01-29 16:48:07.419,2026-01-29T09:48:06.897Z,0.2852,-0.1113,-0.2578
2026-01-29 16:48:07.420,2026-01-29T09:48:06.907Z,0.3184,-0.0508,-0.2773
2026-01-29 16:48:07.420,2026-01-29T09:48:06.917Z,0.3457,0.0547,-0.2852
2026-01-29 16:48:07.448,2026-01-29T09:48:06.927Z,0.3652,0.1406,-0.2832
2026-01-29 16:48:07.449,2026-01-29T09:48:06.937Z,0.3945,0.1973,-0.3027
2026-01-29 16:48:07.449,2026-01-29T09:48:06.947Z,0.4238,0.2266,-0.3262
2026-01-29 16:48:07.449,2026-01-29T09:48:06.957Z,0.4512,0.2344,-0.3438
2026-01-29 16:48:07.477,2026-01-29T09:48:06.967Z,0.4805,0.2188,-0.3574
2026-01-29 16:48:07.478,2026-01-29T09:48:06.977Z,0.5078,0.2188,-0.3809
2026-01-29 16:48:07.478,2026-01-29T09:48:06.987Z,0.5488,0.2480,-0.4043
2026-01-29 16:48:07.505,2026-01-29T09:48:06.997Z,0.5859,0.2598,-0.4277
2026-01-29 16:48:07.507,2026-01-29T09:48:07.007Z,0.6328,0.2754,-0.4531
2026-01-29 16:48:07.507,2026-01-29T09:48:07.017Z,0.6738,0.2891,-0.4883
2026-01-29 16:48:07.536,2026-01-29T09:48:07.027Z,0.7285,0.2793,-0.5254
2026-01-29 16:48:07.537,2026-01-29T09:48:07.037Z,0.7949,0.2695,-0.5645
2026-01-29 16:48:07.537,2026-01-29T09:48:07.047Z,0.8477,0.2988,-0.5938
2026-01-29 16:48:07.566,2026-01-29T09:48:07.057Z,0.8867,0.3340,-0.6328
2026-01-29 16:48:07.567,2026-01-29T09:48:07.067Z,0.9414,0.4004,-0.6797
2026-01-29 16:48:07.567,2026-01-29T09:48:07.077Z,0.9707,0.5273,-0.7285
2026-01-29 16:48:07.610,2026-01-29T09:48:07.087Z,0.9785,0.6016,-0.7871
2026-01-29 16:48:07.610,2026-01-29T09:48:07.097Z,0.9668,0.6113,-0.8496
2026-01-29 16:48:07.610,2026-01-29T09:48:07.107Z,0.9609,0.6738,-0.9121
2026-01-29 16:48:07.625,2026-01-29T09:48:07.117Z,0.9453,0.6797,-0.9941
2026-01-29 16:48:07.627,2026-01-29T09:48:07.127Z,0.9395,0.6523,-1.0742
2026-01-29 16:48:07.627,2026-01-29T09:48:07.137Z,0.9590,0.6602,-1.1367
2026-01-29 16:48:07.655,2026-01-29T09:48:07.147Z,0.9531,0.6191,-1.1855
2026-01-29 16:48:07.657,2026-01-29T09:48:07.157Z,0.8945,0.5371,-1.2539
2026-01-29 16:48:07.657,2026-01-29T09:48:07.167Z,0.8535,0.4355,-1.3535
2026-01-29 16:48:07.715,2026-01-29T09:48:07.177Z,0.8496,0.3047,-1.4395
2026-01-29 16:48:07.717,2026-01-29T09:48:07.187Z,0.8730,0.2852,-1.4727
2026-01-29 16:48:07.718,2026-01-29T09:48:07.197Z,0.9160,0.2227,-1.4922
2026-01-29 16:48:07.718,2026-01-29T09:48:07.207Z,0.9219,0.1836,-1.5020
2026-01-29 16:48:07.718,2026-01-29T09:48:07.217Z,0.9043,0.2090,-1.4629
2026-01-29 16:48:07.719,2026-01-29T09:48:07.227Z,0.8730,0.1426,-1.3789
2026-01-29 16:48:07.746,2026-01-29T09:48:07.237Z,0.8008,-0.0859,-1.2871
2026-01-29 16:48:07.747,2026-01-29T09:48:07.247Z,0.7031,-0.4570,-1.2070
2026-01-29 16:48:07.747,2026-01-29T09:48:07.257Z,0.5781,-0.9023,-1.1055
2026-01-29 16:48:07.775,2026-01-29T09:48:07.267Z,0.4004,-1.2012,-0.9258
2026-01-29 16:48:07.777,2026-01-29T09:48:07.277Z,0.2695,-1.3086,-0.6582
2026-01-29 16:48:07.777,2026-01-29T09:48:07.287Z,0.2168,-1.4277,-0.3867
2026-01-29 16:48:07.805,2026-01-29T09:48:07.297Z,0.1094,-1.7461,-0.2148
2026-01-29 16:48:07.807,2026-01-29T09:48:07.307Z,-0.0840,-2.0410,-0.1016
2026-01-29 16:48:07.807,2026-01-29T09:48:07.317Z,-0.2832,-2.1387,0.0449
2026-01-29 16:48:07.835,2026-01-29T09:48:07.327Z,-0.4199,-2.1465,0.2227
2026-01-29 16:48:07.837,2026-01-29T09:48:07.337Z,-0.4844,-2.1230,0.4277
2026-01-29 16:48:07.837,2026-01-29T09:48:07.347Z,-0.4883,-2.0020,0.6680
2026-01-29 16:48:07.866,2026-01-29T09:48:07.357Z,-0.4551,-1.8203,0.9277
2026-01-29 16:48:07.867,2026-01-29T09:48:07.367Z,-0.4160,-1.6328,1.1777
2026-01-29 16:48:07.867,2026-01-29T09:48:07.377Z,-0.3652,-1.4727,1.4219
2026-01-29 16:48:07.895,2026-01-29T09:48:07.387Z,-0.3398,-1.3691,1.6152
2026-01-29 16:48:07.897,2026-01-29T09:48:07.397Z,-0.3809,-1.2363,1.7656
2026-01-29 16:48:07.897,2026-01-29T09:48:07.407Z,-0.4668,-1.0527,1.8926
2026-01-29 16:48:07.928,2026-01-29T09:48:07.417Z,-0.5859,-0.8438,2.0176
2026-01-29 16:48:07.928,2026-01-29T09:48:07.427Z,-0.6875,-0.6738,2.1523
2026-01-29 16:48:07.928,2026-01-29T09:48:07.437Z,-0.7422,-0.6738,2.2305
2026-01-29 16:48:07.956,2026-01-29T09:48:07.447Z,-0.7500,-0.7344,2.2617
2026-01-29 16:48:07.957,2026-01-29T09:48:07.457Z,-0.7695,-0.6523,2.2617
2026-01-29 16:48:07.957,2026-01-29T09:48:07.467Z,-0.7910,-0.4785,2.2773
2026-01-29 16:48:07.985,2026-01-29T09:48:07.477Z,-0.8262,-0.3926,2.2598
2026-01-29 16:48:07.987,2026-01-29T09:48:07.487Z,-0.8477,-0.3848,2.2109
2026-01-29 16:48:07.987,2026-01-29T09:48:07.497Z,-0.8457,-0.5547,2.0840
2026-01-29 16:48:08.015,2026-01-29T09:48:07.507Z,-0.9004,-0.6621,1.9570
2026-01-29 16:48:08.017,2026-01-29T09:48:07.517Z,-0.9805,-0.7617,1.8145
2026-01-29 16:48:08.017,2026-01-29T09:48:07.527Z,-1.0293,-0.8770,1.6738
2026-01-29 16:48:08.045,2026-01-29T09:48:07.537Z,-1.0254,-0.9922,1.5410
2026-01-29 16:48:08.046,2026-01-29T09:48:07.547Z,-0.9570,-1.2031,1.3418
2026-01-29 16:48:08.047,2026-01-29T09:48:07.557Z,-1.0020,-1.2891,1.1074
2026-01-29 16:48:08.075,2026-01-29T09:48:07.567Z,-1.0215,-1.1699,0.9336
2026-01-29 16:48:08.078,2026-01-29T09:48:07.577Z,-0.9395,-0.9883,0.7812
2026-01-29 16:48:08.078,2026-01-29T09:48:07.587Z,-0.7969,-0.6328,0.6426
2026-01-29 16:48:08.107,2026-01-29T09:48:07.597Z,-0.6035,-0.1152,0.5332
2026-01-29 16:48:08.108,2026-01-29T09:48:07.607Z,-0.4238,0.3809,0.4238
2026-01-29 16:48:08.108,2026-01-29T09:48:07.617Z,-0.2793,0.6660,0.2793
2026-01-29 16:48:08.135,2026-01-29T09:48:07.627Z,-0.1504,0.7168,0.1074
2026-01-29 16:48:08.137,2026-01-29T09:48:07.637Z,-0.0098,0.5723,-0.1016
2026-01-29 16:48:08.137,2026-01-29T09:48:07.647Z,0.1211,0.2578,-0.3633
2026-01-29 16:48:08.167,2026-01-29T09:48:07.657Z,0.2285,-0.1602,-0.6582
2026-01-29 16:48:08.168,2026-01-29T09:48:07.667Z,0.3223,-0.4609,-0.8281
2026-01-29 16:48:08.168,2026-01-29T09:48:07.677Z,0.4668,-0.7031,-0.7930
2026-01-29 16:48:08.198,2026-01-29T09:48:07.687Z,0.5293,-1.0176,-0.5957
2026-01-29 16:48:08.199,2026-01-29T09:48:07.697Z,0.4180,-1.3516,-0.3027
2026-01-29 16:48:08.199,2026-01-29T09:48:07.707Z,0.1875,-1.5605,-0.0723
2026-01-29 16:48:08.226,2026-01-29T09:48:07.717Z,-0.0586,-1.5938,-0.1055
2026-01-29 16:48:08.227,2026-01-29T09:48:07.727Z,-0.1699,-1.4004,-0.3691
2026-01-29 16:48:08.316,2026-01-29T09:48:07.737Z,-0.0918,-0.9785,-0.5469
2026-01-29 16:48:08.345,2026-01-29T09:48:07.747Z,0.0312,-0.4473,-0.5430
2026-01-29 16:48:08.347,2026-01-29T09:48:07.757Z,0.1406,0.1289,-0.4180
2026-01-29 16:48:08.347,2026-01-29T09:48:07.767Z,0.1836,0.6660,-0.2520
2026-01-29 16:48:08.348,2026-01-29T09:48:07.777Z,0.1074,0.9785,-0.1621
2026-01-29 16:48:08.348,2026-01-29T09:48:07.787Z,0.0371,1.0293,-0.1289
2026-01-29 16:48:08.349,2026-01-29T09:48:07.797Z,0.0312,0.8672,-0.1328
2026-01-29 16:48:08.349,2026-01-29T09:48:07.807Z,0.1094,0.6387,-0.1094
2026-01-29 16:48:08.349,2026-01-29T09:48:07.817Z,0.1660,0.3516,-0.0801
2026-01-29 16:48:08.351,2026-01-29T09:48:07.827Z,0.0352,-0.0430,-0.1074
2026-01-29 16:48:08.378,2026-01-29T09:48:07.837Z,-0.1484,-0.3086,-0.1738
2026-01-29 16:48:08.378,2026-01-29T09:48:07.847Z,-0.1855,-0.4336,-0.2363
2026-01-29 16:48:08.378,2026-01-29T09:48:07.857Z,-0.1230,-0.4395,-0.2891
2026-01-29 16:48:08.378,2026-01-29T09:48:07.867Z,-0.0410,-0.2441,-0.2852
2026-01-29 16:48:08.379,2026-01-29T09:48:07.877Z,-0.0059,0.0039,-0.2598
2026-01-29 16:48:08.379,2026-01-29T09:48:07.887Z,0.0117,0.2012,-0.2402
2026-01-29 16:48:08.407,2026-01-29T09:48:07.897Z,0.0312,0.3184,-0.2207
2026-01-29 16:48:08.408,2026-01-29T09:48:07.907Z,0.0352,0.3613,-0.1934
2026-01-29 16:48:08.408,2026-01-29T09:48:07.917Z,0.0312,0.2832,-0.1641
2026-01-29 16:48:08.435,2026-01-29T09:48:07.927Z,0.0098,0.0977,-0.1777
2026-01-29 16:48:08.436,2026-01-29T09:48:07.937Z,0.0020,-0.1133,-0.2031
2026-01-29 16:48:08.437,2026-01-29T09:48:07.947Z,0.0098,-0.1855,-0.2012
2026-01-29 16:48:08.467,2026-01-29T09:48:07.957Z,0.0254,-0.1816,-0.1719
2026-01-29 16:48:08.468,2026-01-29T09:48:07.967Z,0.0312,-0.1602,-0.1406
2026-01-29 16:48:08.468,2026-01-29T09:48:07.977Z,0.0527,-0.0605,-0.1445
2026-01-29 16:48:08.497,2026-01-29T09:48:07.987Z,0.0781,0.1230,-0.1289
2026-01-29 16:48:08.498,2026-01-29T09:48:07.997Z,0.0996,0.2715,-0.0801
2026-01-29 16:48:08.498,2026-01-29T09:48:08.007Z,0.0957,0.3633,-0.0371
2026-01-29 16:48:08.525,2026-01-29T09:48:08.017Z,0.0801,0.3652,-0.0332
2026-01-29 16:48:08.527,2026-01-29T09:48:08.027Z,0.1055,0.2871,-0.0410
2026-01-29 16:48:08.527,2026-01-29T09:48:08.037Z,0.0996,0.1836,-0.0293
2026-01-29 16:48:08.555,2026-01-29T09:48:08.047Z,0.0840,0.1113,-0.0098
2026-01-29 16:48:08.557,2026-01-29T09:48:08.057Z,0.0723,0.0840,0.0176
2026-01-29 16:48:08.557,2026-01-29T09:48:08.067Z,0.0684,0.0449,0.0137
2026-01-29 16:48:08.585,2026-01-29T09:48:08.077Z,0.0820,0.0293,-0.0078
2026-01-29 16:48:08.587,2026-01-29T09:48:08.087Z,0.0918,0.0430,-0.0117
2026-01-29 16:48:08.587,2026-01-29T09:48:08.097Z,0.1035,0.0703,-0.0137
2026-01-29 16:48:08.615,2026-01-29T09:48:08.107Z,0.1035,0.0488,-0.0254
2026-01-29 16:48:08.617,2026-01-29T09:48:08.117Z,0.1152,0.0410,-0.0273
2026-01-29 16:48:08.617,2026-01-29T09:48:08.127Z,0.1211,0.0605,-0.0254
2026-01-29 16:48:08.645,2026-01-29T09:48:08.137Z,0.1445,0.0566,-0.0566
2026-01-29 16:48:08.647,2026-01-29T09:48:08.147Z,0.1602,0.0527,-0.0840
2026-01-29 16:48:08.647,2026-01-29T09:48:08.157Z,0.1855,0.0801,-0.0898
2026-01-29 16:48:08.675,2026-01-29T09:48:08.167Z,0.1973,0.0684,-0.1016
2026-01-29 16:48:08.705,2026-01-29T09:48:08.177Z,0.2188,0.0508,-0.1289
2026-01-29 16:48:08.707,2026-01-29T09:48:08.187Z,0.2402,0.0879,-0.1523
2026-01-29 16:48:08.708,2026-01-29T09:48:08.197Z,0.2598,0.1152,-0.1758
2026-01-29 16:48:08.708,2026-01-29T09:48:08.207Z,0.2812,0.0801,-0.2188
2026-01-29 16:48:08.708,2026-01-29T09:48:08.217Z,0.3203,0.0684,-0.2715
2026-01-29 16:48:08.735,2026-01-29T09:48:08.227Z,0.3457,0.0898,-0.3066
2026-01-29 16:48:08.737,2026-01-29T09:48:08.237Z,0.3945,0.1094,-0.3613
2026-01-29 16:48:08.738,2026-01-29T09:48:08.247Z,0.4551,0.1660,-0.4277
2026-01-29 16:48:08.767,2026-01-29T09:48:08.257Z,0.5059,0.2656,-0.4707
2026-01-29 16:48:08.768,2026-01-29T09:48:08.267Z,0.5449,0.3633,-0.4863
2026-01-29 16:48:08.768,2026-01-29T09:48:08.277Z,0.5996,0.3867,-0.5234
2026-01-29 16:48:08.795,2026-01-29T09:48:08.287Z,0.6504,0.3379,-0.5312
2026-01-29 16:48:08.797,2026-01-29T09:48:08.297Z,0.6992,0.2520,-0.5664
2026-01-29 16:48:08.797,2026-01-29T09:48:08.307Z,0.7422,0.1582,-0.6094
2026-01-29 16:48:08.856,2026-01-29T09:48:08.317Z,0.7734,0.1719,-0.6562
2026-01-29 16:48:08.858,2026-01-29T09:48:08.327Z,0.7520,0.2812,-0.6816
2026-01-29 16:48:08.858,2026-01-29T09:48:08.337Z,0.7168,0.3848,-0.7168
2026-01-29 16:48:08.858,2026-01-29T09:48:08.347Z,0.7012,0.5625,-0.7520
2026-01-29 16:48:08.859,2026-01-29T09:48:08.357Z,0.7031,0.7148,-0.8066
2026-01-29 16:48:08.861,2026-01-29T09:48:08.367Z,0.7207,0.8477,-0.8633
2026-01-29 16:48:08.888,2026-01-29T09:48:08.377Z,0.7148,1.0137,-0.8809
2026-01-29 16:48:08.889,2026-01-29T09:48:08.387Z,0.7070,1.1113,-0.8867
2026-01-29 16:48:08.889,2026-01-29T09:48:08.397Z,0.7012,1.1016,-0.9336
2026-01-29 16:48:08.918,2026-01-29T09:48:08.407Z,0.6973,1.0371,-1.0000
2026-01-29 16:48:08.919,2026-01-29T09:48:08.417Z,0.6855,0.9199,-1.0781
2026-01-29 16:48:08.919,2026-01-29T09:48:08.427Z,0.6484,0.7402,-1.1621
2026-01-29 16:48:08.949,2026-01-29T09:48:08.437Z,0.5996,0.5527,-1.2480
2026-01-29 16:48:08.949,2026-01-29T09:48:08.447Z,0.5703,0.4238,-1.3125
2026-01-29 16:48:08.949,2026-01-29T09:48:08.457Z,0.5625,0.2910,-1.3496
2026-01-29 16:48:08.977,2026-01-29T09:48:08.467Z,0.5645,0.1094,-1.3633
2026-01-29 16:48:08.978,2026-01-29T09:48:08.477Z,0.5625,-0.0371,-1.3496
2026-01-29 16:48:08.978,2026-01-29T09:48:08.487Z,0.4922,-0.1328,-1.2969
2026-01-29 16:48:09.005,2026-01-29T09:48:08.497Z,0.4297,-0.2969,-1.2090
2026-01-29 16:48:09.008,2026-01-29T09:48:08.507Z,0.5586,-0.6621,-1.1641
2026-01-29 16:48:09.008,2026-01-29T09:48:08.517Z,0.6875,-0.9570,-1.1602
2026-01-29 16:48:09.065,2026-01-29T09:48:08.527Z,0.7090,-1.1328,-1.1074
2026-01-29 16:48:09.067,2026-01-29T09:48:08.537Z,0.6855,-1.3457,-1.0195
2026-01-29 16:48:09.068,2026-01-29T09:48:08.547Z,0.6211,-1.5840,-0.9336
2026-01-29 16:48:09.068,2026-01-29T09:48:08.557Z,0.5234,-1.6777,-0.7871
2026-01-29 16:48:09.068,2026-01-29T09:48:08.567Z,0.4102,-1.5527,-0.5234
2026-01-29 16:48:09.069,2026-01-29T09:48:08.577Z,0.3008,-1.3223,-0.1660
2026-01-29 16:48:09.097,2026-01-29T09:48:08.587Z,0.2383,-1.1758,0.1914
2026-01-29 16:48:09.098,2026-01-29T09:48:08.597Z,0.2363,-1.1523,0.4551
2026-01-29 16:48:09.098,2026-01-29T09:48:08.607Z,0.2031,-1.1074,0.6523
2026-01-29 16:48:09.126,2026-01-29T09:48:08.617Z,0.0898,-0.9199,0.8184
2026-01-29 16:48:09.128,2026-01-29T09:48:08.627Z,0.0020,-0.7285,0.9512
2026-01-29 16:48:09.128,2026-01-29T09:48:08.637Z,-0.0703,-0.6445,1.0254
2026-01-29 16:48:09.157,2026-01-29T09:48:08.647Z,-0.1621,-0.6191,1.0918
2026-01-29 16:48:09.158,2026-01-29T09:48:08.657Z,-0.2207,-0.6230,1.1914
2026-01-29 16:48:09.158,2026-01-29T09:48:08.667Z,-0.2852,-0.6426,1.2871
2026-01-29 16:48:09.185,2026-01-29T09:48:08.677Z,-0.3828,-0.6035,1.3828
2026-01-29 16:48:09.187,2026-01-29T09:48:08.687Z,-0.4785,-0.5039,1.4668
2026-01-29 16:48:09.187,2026-01-29T09:48:08.697Z,-0.5391,-0.5117,1.5117
2026-01-29 16:48:09.215,2026-01-29T09:48:08.707Z,-0.5469,-0.6543,1.4922
2026-01-29 16:48:09.217,2026-01-29T09:48:08.717Z,-0.5879,-0.7988,1.4414
2026-01-29 16:48:09.217,2026-01-29T09:48:08.727Z,-0.6602,-1.0254,1.3867
2026-01-29 16:48:09.245,2026-01-29T09:48:08.737Z,-0.6875,-1.3262,1.3496
2026-01-29 16:48:09.247,2026-01-29T09:48:08.747Z,-0.6816,-1.5566,1.3008
2026-01-29 16:48:09.248,2026-01-29T09:48:08.757Z,-0.6484,-1.5176,1.2578
2026-01-29 16:48:09.275,2026-01-29T09:48:08.767Z,-0.5742,-1.4004,1.2129
2026-01-29 16:48:09.277,2026-01-29T09:48:08.777Z,-0.5293,-1.1484,1.2129
2026-01-29 16:48:09.427,2026-01-29T09:48:08.787Z,-0.4219,-0.7559,1.2773
2026-01-29 16:48:09.427,2026-01-29T09:48:08.797Z,-0.3242,-0.4277,1.2637
2026-01-29 16:48:09.427,2026-01-29T09:48:08.807Z,-0.3379,0.0547,1.2656
2026-01-29 16:48:09.428,2026-01-29T09:48:08.817Z,-0.3926,0.3809,1.2656
2026-01-29 16:48:09.429,2026-01-29T09:48:08.827Z,-0.4668,0.4668,1.2109
2026-01-29 16:48:09.429,2026-01-29T09:48:08.837Z,-0.5312,0.4043,1.0938
2026-01-29 16:48:09.429,2026-01-29T09:48:08.847Z,-0.6191,0.3164,0.9590
2026-01-29 16:48:09.430,2026-01-29T09:48:08.857Z,-0.6992,0.2520,0.8574
2026-01-29 16:48:09.456,2026-01-29T09:48:08.867Z,-0.7266,0.2246,0.8203
2026-01-29 16:48:09.457,2026-01-29T09:48:08.877Z,-0.6660,0.1465,0.7871
2026-01-29 16:48:09.457,2026-01-29T09:48:08.887Z,-0.5859,0.1113,0.7305
2026-01-29 16:48:09.458,2026-01-29T09:48:08.897Z,-0.5059,0.0332,0.6465
2026-01-29 16:48:09.458,2026-01-29T09:48:08.907Z,-0.4785,0.0508,0.5547
2026-01-29 16:48:09.487,2026-01-29T09:48:08.917Z,-0.4727,0.1055,0.4688
2026-01-29 16:48:09.516,2026-01-29T09:48:08.927Z,-0.4531,0.1641,0.3906
2026-01-29 16:48:09.517,2026-01-29T09:48:08.937Z,-0.4062,0.3008,0.3398
2026-01-29 16:48:09.518,2026-01-29T09:48:08.947Z,-0.3633,0.3652,0.2793
2026-01-29 16:48:09.518,2026-01-29T09:48:08.957Z,-0.3438,0.4102,0.2266
2026-01-29 16:48:09.518,2026-01-29T09:48:08.967Z,-0.3047,0.4609,0.1973
2026-01-29 16:48:09.519,2026-01-29T09:48:08.977Z,-0.2324,0.3945,0.1348
2026-01-29 16:48:09.520,2026-01-29T09:48:08.987Z,-0.2363,0.3496,0.0742
2026-01-29 16:48:09.520,2026-01-29T09:48:08.997Z,-0.2812,0.4395,0.0449
2026-01-29 16:48:09.520,2026-01-29T09:48:09.007Z,-0.2852,0.4824,0.0137
2026-01-29 16:48:09.548,2026-01-29T09:48:09.017Z,-0.2285,0.5293,-0.0508
2026-01-29 16:48:09.548,2026-01-29T09:48:09.027Z,-0.1133,0.6074,-0.1406
2026-01-29 16:48:09.548,2026-01-29T09:48:09.037Z,0.0625,0.6777,-0.1875
2026-01-29 16:48:09.549,2026-01-29T09:48:09.047Z,0.2383,0.5918,-0.1797
2026-01-29 16:48:09.549,2026-01-29T09:48:09.057Z,0.3262,0.3340,-0.1445
2026-01-29 16:48:09.577,2026-01-29T09:48:09.067Z,0.2539,-0.0625,-0.1055
2026-01-29 16:48:09.577,2026-01-29T09:48:09.077Z,0.1465,-0.5352,-0.1055
2026-01-29 16:48:09.577,2026-01-29T09:48:09.087Z,0.1172,-1.0312,-0.1992
2026-01-29 16:48:09.636,2026-01-29T09:48:09.097Z,0.1211,-1.2012,-0.3105
2026-01-29 16:48:09.638,2026-01-29T09:48:09.107Z,0.0977,-0.9707,-0.3555
2026-01-29 16:48:09.639,2026-01-29T09:48:09.117Z,0.0957,-0.6348,-0.3320
2026-01-29 16:48:09.639,2026-01-29T09:48:09.127Z,0.0977,-0.2031,-0.2168
2026-01-29 16:48:09.639,2026-01-29T09:48:09.137Z,0.0742,0.2559,-0.0723
2026-01-29 16:48:09.639,2026-01-29T09:48:09.147Z,0.0059,0.6172,0.0039
2026-01-29 16:48:09.669,2026-01-29T09:48:09.157Z,0.0039,0.9062,0.0879
2026-01-29 16:48:09.670,2026-01-29T09:48:09.167Z,0.1035,1.0488,0.1523
2026-01-29 16:48:09.670,2026-01-29T09:48:09.177Z,0.1895,1.0859,0.1816
2026-01-29 16:48:09.697,2026-01-29T09:48:09.187Z,0.1973,1.0352,0.1934
2026-01-29 16:48:09.697,2026-01-29T09:48:09.197Z,0.1289,0.8359,0.1523
2026-01-29 16:48:09.697,2026-01-29T09:48:09.207Z,0.0137,0.5586,0.0957
2026-01-29 16:48:09.725,2026-01-29T09:48:09.217Z,-0.0039,0.2773,0.0195
2026-01-29 16:48:09.726,2026-01-29T09:48:09.227Z,-0.0293,-0.0410,-0.1191
2026-01-29 16:48:09.726,2026-01-29T09:48:09.237Z,-0.0508,-0.3379,-0.2051
2026-01-29 16:48:09.755,2026-01-29T09:48:09.247Z,-0.0391,-0.4961,-0.2070
2026-01-29 16:48:09.757,2026-01-29T09:48:09.257Z,-0.0508,-0.5137,-0.1875
2026-01-29 16:48:09.757,2026-01-29T09:48:09.267Z,-0.0449,-0.4883,-0.1641
2026-01-29 16:48:09.786,2026-01-29T09:48:09.277Z,-0.0195,-0.4180,-0.1387
2026-01-29 16:48:09.788,2026-01-29T09:48:09.287Z,0.0293,-0.2832,-0.1367
2026-01-29 16:48:09.789,2026-01-29T09:48:09.297Z,0.0918,-0.1035,-0.1504
2026-01-29 16:48:09.817,2026-01-29T09:48:09.307Z,0.1113,-0.0059,-0.1309
2026-01-29 16:48:09.817,2026-01-29T09:48:09.317Z,0.0781,-0.0410,-0.1289
2026-01-29 16:48:09.817,2026-01-29T09:48:09.327Z,0.0684,-0.0645,-0.0879
2026-01-29 16:48:09.846,2026-01-29T09:48:09.337Z,0.0840,-0.1035,-0.0840
2026-01-29 16:48:09.848,2026-01-29T09:48:09.347Z,0.1074,-0.1836,-0.0977
2026-01-29 16:48:09.848,2026-01-29T09:48:09.357Z,0.1211,-0.1777,-0.0820
2026-01-29 16:48:09.877,2026-01-29T09:48:09.367Z,0.1191,-0.1035,-0.0488
2026-01-29 16:48:09.877,2026-01-29T09:48:09.377Z,0.1309,-0.0273,-0.0254
2026-01-29 16:48:09.877,2026-01-29T09:48:09.387Z,0.1445,0.0547,-0.0176
2026-01-29 16:48:09.936,2026-01-29T09:48:09.397Z,0.1523,0.1738,-0.0234
2026-01-29 16:48:09.938,2026-01-29T09:48:09.407Z,0.1543,0.1855,-0.0449
2026-01-29 16:48:09.939,2026-01-29T09:48:09.417Z,0.1602,0.2031,-0.0469
2026-01-29 16:48:09.939,2026-01-29T09:48:09.427Z,0.1699,0.1758,-0.0293
2026-01-29 16:48:09.939,2026-01-29T09:48:09.437Z,0.1816,0.1152,-0.0117
2026-01-29 16:48:09.939,2026-01-29T09:48:09.447Z,0.1816,0.0488,-0.0547
2026-01-29 16:48:09.980,2026-01-29T09:48:09.457Z,0.1816,0.0293,-0.0938
2026-01-29 16:48:09.981,2026-01-29T09:48:09.467Z,0.2090,0.0664,-0.1094
2026-01-29 16:48:09.981,2026-01-29T09:48:09.477Z,0.2461,0.1328,-0.1309
2026-01-29 16:48:09.995,2026-01-29T09:48:09.487Z,0.2695,0.1699,-0.1836
2026-01-29 16:48:09.998,2026-01-29T09:48:09.497Z,0.2930,0.2031,-0.2461
2026-01-29 16:48:09.998,2026-01-29T09:48:09.507Z,0.3496,0.2207,-0.3184
2026-01-29 16:48:10.029,2026-01-29T09:48:09.517Z,0.3984,0.2070,-0.3965
2026-01-29 16:48:10.029,2026-01-29T09:48:09.527Z,0.4570,0.2051,-0.4707
2026-01-29 16:48:10.029,2026-01-29T09:48:09.537Z,0.5371,0.2305,-0.5645
2026-01-29 16:48:10.058,2026-01-29T09:48:09.547Z,0.6152,0.2520,-0.6855
2026-01-29 16:48:10.059,2026-01-29T09:48:09.557Z,0.7012,0.2715,-0.8164
2026-01-29 16:48:10.059,2026-01-29T09:48:09.567Z,0.7832,0.3086,-0.9297
2026-01-29 16:48:10.087,2026-01-29T09:48:09.577Z,0.8535,0.3496,-1.0215
2026-01-29 16:48:10.087,2026-01-29T09:48:09.587Z,0.8867,0.3730,-1.0918
2026-01-29 16:48:10.087,2026-01-29T09:48:09.597Z,0.8867,0.4375,-1.2012
2026-01-29 16:48:10.115,2026-01-29T09:48:09.607Z,0.8574,0.5625,-1.3027
2026-01-29 16:48:10.116,2026-01-29T09:48:09.617Z,0.7656,0.6309,-1.3730
2026-01-29 16:48:10.116,2026-01-29T09:48:09.627Z,0.6738,0.6992,-1.4258
2026-01-29 16:48:10.145,2026-01-29T09:48:09.637Z,0.6406,0.7930,-1.4668
2026-01-29 16:48:10.146,2026-01-29T09:48:09.647Z,0.6270,0.7969,-1.5352
2026-01-29 16:48:10.146,2026-01-29T09:48:09.657Z,0.6074,0.8203,-1.5645
2026-01-29 16:48:10.175,2026-01-29T09:48:09.667Z,0.5879,0.8008,-1.5840
2026-01-29 16:48:10.176,2026-01-29T09:48:09.677Z,0.5781,0.7539,-1.5957
2026-01-29 16:48:10.176,2026-01-29T09:48:09.687Z,0.6191,0.7871,-1.5273
2026-01-29 16:48:10.205,2026-01-29T09:48:09.697Z,0.6855,0.6660,-1.4531
2026-01-29 16:48:10.206,2026-01-29T09:48:09.707Z,0.7031,0.4551,-1.3691
2026-01-29 16:48:10.207,2026-01-29T09:48:09.717Z,0.6934,0.2773,-1.2598
2026-01-29 16:48:10.236,2026-01-29T09:48:09.727Z,0.6855,0.0410,-1.1289
2026-01-29 16:48:10.237,2026-01-29T09:48:09.737Z,0.6094,-0.2930,-0.9570
2026-01-29 16:48:10.237,2026-01-29T09:48:09.747Z,0.4160,-0.5625,-0.7129
2026-01-29 16:48:10.265,2026-01-29T09:48:09.757Z,0.2012,-0.6953,-0.4219
2026-01-29 16:48:10.266,2026-01-29T09:48:09.767Z,0.0488,-0.8125,-0.1406
2026-01-29 16:48:10.266,2026-01-29T09:48:09.777Z,-0.0840,-1.0000,0.0488
2026-01-29 16:48:10.296,2026-01-29T09:48:09.787Z,-0.2520,-1.2148,0.1660
2026-01-29 16:48:10.298,2026-01-29T09:48:09.797Z,-0.4336,-1.3730,0.2539
2026-01-29 16:48:10.298,2026-01-29T09:48:09.807Z,-0.5605,-1.3691,0.3926
2026-01-29 16:48:10.328,2026-01-29T09:48:09.817Z,-0.5957,-1.2031,0.5996
2026-01-29 16:48:10.328,2026-01-29T09:48:09.827Z,-0.5918,-0.9824,0.8320
2026-01-29 16:48:10.328,2026-01-29T09:48:09.837Z,-0.5625,-0.7422,1.0762
2026-01-29 16:48:10.358,2026-01-29T09:48:09.847Z,-0.5059,-0.5488,1.2871
2026-01-29 16:48:10.359,2026-01-29T09:48:09.857Z,-0.4785,-0.3105,1.4629
2026-01-29 16:48:10.359,2026-01-29T09:48:09.867Z,-0.4688,-0.0449,1.5801
2026-01-29 16:48:10.417,2026-01-29T09:48:09.877Z,-0.5742,0.1094,1.6582
2026-01-29 16:48:10.418,2026-01-29T09:48:09.887Z,-0.5742,0.1094,1.6582
2026-01-29 16:48:10.418,2026-01-29T09:48:09.897Z,-0.6777,-0.1133,1.6582
2026-01-29 16:48:10.418,2026-01-29T09:48:09.907Z,-0.7852,-0.4473,1.6465
2026-01-29 16:48:10.419,2026-01-29T09:48:09.917Z,-0.8906,-0.9512,1.6211
2026-01-29 16:48:10.419,2026-01-29T09:48:09.927Z,-0.8906,-0.9512,1.6211
2026-01-29 16:48:10.449,2026-01-29T09:48:09.937Z,-0.8633,-1.0879,1.5918
2026-01-29 16:48:10.449,2026-01-29T09:48:09.947Z,-0.7070,-1.1289,1.5586
2026-01-29 16:48:10.449,2026-01-29T09:48:09.957Z,-0.7070,-1.1289,1.5586
2026-01-29 16:48:10.506,2026-01-29T09:48:09.967Z,-0.6113,-1.0977,1.5176
2026-01-29 16:48:10.536,2026-01-29T09:48:09.977Z,-0.5742,-0.5957,1.4922
2026-01-29 16:48:10.538,2026-01-29T09:48:09.987Z,-0.5605,-0.3066,1.4922
2026-01-29 16:48:10.538,2026-01-29T09:48:09.998Z,-0.5547,-0.0898,1.4355
2026-01-29 16:48:10.538,2026-01-29T09:48:10.008Z,-0.5781,0.0625,1.3301
2026-01-29 16:48:10.538,2026-01-29T09:48:10.018Z,-0.6465,0.2305,1.2422
2026-01-29 16:48:10.539,2026-01-29T09:48:10.028Z,-0.6777,0.3867,1.1719
2026-01-29 16:48:10.539,2026-01-29T09:48:10.038Z,-0.6816,0.4688,1.0898
2026-01-29 16:48:10.539,2026-01-29T09:48:10.049Z,-0.6777,0.5039,0.9922
2026-01-29 16:48:10.597,2026-01-29T09:48:10.059Z,-0.6504,0.5254,0.8848
2026-01-29 16:48:10.598,2026-01-29T09:48:10.069Z,-0.6035,0.5586,0.7832
2026-01-29 16:48:10.598,2026-01-29T09:48:10.079Z,-0.5801,0.5996,0.6875
2026-01-29 16:48:10.625,2026-01-29T09:48:10.089Z,-0.4766,0.5371,0.6113
2026-01-29 16:48:10.627,2026-01-29T09:48:10.099Z,-0.3965,0.3945,0.5000
2026-01-29 16:48:10.627,2026-01-29T09:48:10.109Z,-0.3906,0.3125,0.3965
2026-01-29 16:48:10.627,2026-01-29T09:48:10.119Z,-0.3789,0.2129,0.3262
2026-01-29 16:48:10.628,2026-01-29T09:48:10.129Z,-0.3496,0.0566,0.2852
2026-01-29 16:48:10.629,2026-01-29T09:48:10.139Z,-0.2812,-0.1309,0.2441
2026-01-29 16:48:10.657,2026-01-29T09:48:10.149Z,-0.1484,-0.3125,0.1641
2026-01-29 16:48:10.658,2026-01-29T09:48:10.159Z,-0.0391,-0.3848,0.0078
2026-01-29 16:48:10.658,2026-01-29T09:48:10.169Z,0.0352,-0.4766,-0.2363
2026-01-29 16:48:10.686,2026-01-29T09:48:10.179Z,0.1660,-0.5703,-0.4629
2026-01-29 16:48:10.688,2026-01-29T09:48:10.189Z,0.3203,-0.5137,-0.6211
2026-01-29 16:48:10.688,2026-01-29T09:48:10.199Z,0.3809,-0.4043,-0.6738
2026-01-29 16:48:10.717,2026-01-29T09:48:10.209Z,0.3203,-0.3164,-0.5664
2026-01-29 16:48:10.718,2026-01-29T09:48:10.219Z,0.1934,-0.2617,-0.3555
2026-01-29 16:48:10.718,2026-01-29T09:48:10.229Z,0.0430,-0.2695,-0.1816
2026-01-29 16:48:10.745,2026-01-29T09:48:10.239Z,-0.0527,-0.2012,-0.1113
2026-01-29 16:48:10.775,2026-01-29T09:48:10.249Z,-0.0488,-0.1738,-0.1562
2026-01-29 16:48:10.777,2026-01-29T09:48:10.259Z,0.0488,-0.2812,-0.2852
2026-01-29 16:48:10.777,2026-01-29T09:48:10.269Z,0.1465,-0.3867,-0.3906
2026-01-29 16:48:10.778,2026-01-29T09:48:10.279Z,0.1484,-0.3457,-0.4160
2026-01-29 16:48:10.806,2026-01-29T09:48:10.289Z,0.1328,-0.1758,-0.3555
2026-01-29 16:48:10.807,2026-01-29T09:48:10.299Z,0.0996,0.0176,-0.2715
2026-01-29 16:48:10.807,2026-01-29T09:48:10.309Z,0.0527,0.1328,-0.2012
2026-01-29 16:48:10.807,2026-01-29T09:48:10.319Z,0.0527,0.1875,-0.1348
2026-01-29 16:48:10.836,2026-01-29T09:48:10.329Z,0.0371,0.1777,-0.0820
2026-01-29 16:48:10.837,2026-01-29T09:48:10.339Z,0.0527,0.1641,-0.0449
2026-01-29 16:48:10.837,2026-01-29T09:48:10.349Z,0.0352,0.2695,-0.0039
2026-01-29 16:48:10.926,2026-01-29T09:48:10.359Z,0.0020,0.2812,-0.0117
2026-01-29 16:48:10.927,2026-01-29T09:48:10.369Z,-0.0293,0.2090,-0.0762
2026-01-29 16:48:10.928,2026-01-29T09:48:10.379Z,-0.0488,0.1523,-0.1309
2026-01-29 16:48:10.928,2026-01-29T09:48:10.389Z,-0.0488,0.0898,-0.1465
2026-01-29 16:48:10.928,2026-01-29T09:48:10.399Z,-0.0742,-0.0059,-0.1602
2026-01-29 16:48:10.930,2026-01-29T09:48:10.409Z,-0.1035,-0.1152,-0.1641
2026-01-29 16:48:10.958,2026-01-29T09:48:10.419Z,-0.1055,-0.2207,-0.1875
2026-01-29 16:48:10.958,2026-01-29T09:48:10.429Z,-0.0938,-0.3203,-0.2207
2026-01-29 16:48:10.958,2026-01-29T09:48:10.439Z,-0.0840,-0.3145,-0.2207
2026-01-29 16:48:10.958,2026-01-29T09:48:10.449Z,-0.0781,-0.2949,-0.2188
2026-01-29 16:48:10.959,2026-01-29T09:48:10.459Z,-0.0137,-0.1973,-0.2207
2026-01-29 16:48:10.960,2026-01-29T09:48:10.469Z,0.0371,-0.0488,-0.2461
2026-01-29 16:48:10.987,2026-01-29T09:48:10.479Z,0.0781,0.1016,-0.2520
2026-01-29 16:48:10.988,2026-01-29T09:48:10.489Z,0.0840,0.1816,-0.2539
2026-01-29 16:48:11.046,2026-01-29T09:48:10.499Z,0.1133,0.2305,-0.2383
2026-01-29 16:48:11.049,2026-01-29T09:48:10.509Z,0.1602,0.2773,-0.2207
2026-01-29 16:48:11.049,2026-01-29T09:48:10.519Z,0.1973,0.3105,-0.2129
2026-01-29 16:48:11.049,2026-01-29T09:48:10.529Z,0.2070,0.3730,-0.1895
2026-01-29 16:48:11.049,2026-01-29T09:48:10.539Z,0.2129,0.4102,-0.1582
2026-01-29 16:48:11.050,2026-01-29T09:48:10.549Z,0.2090,0.3809,-0.1504
2026-01-29 16:48:11.050,2026-01-29T09:48:10.559Z,0.2051,0.3164,-0.1582
2026-01-29 16:48:11.077,2026-01-29T09:48:10.569Z,0.2070,0.2793,-0.1602
2026-01-29 16:48:11.078,2026-01-29T09:48:10.579Z,0.2168,0.2656,-0.1582
2026-01-29 16:48:11.078,2026-01-29T09:48:10.589Z,0.2012,0.2363,-0.1582
2026-01-29 16:48:11.105,2026-01-29T09:48:10.599Z,0.1875,0.1758,-0.1758
2026-01-29 16:48:11.108,2026-01-29T09:48:10.609Z,0.1973,0.1211,-0.2070
2026-01-29 16:48:11.108,2026-01-29T09:48:10.619Z,0.2227,0.1133,-0.2246
2026-01-29 16:48:11.136,2026-01-29T09:48:10.629Z,0.2480,0.0801,-0.2363
2026-01-29 16:48:11.136,2026-01-29T09:48:10.639Z,0.2617,0.0430,-0.2559
2026-01-29 16:48:11.136,2026-01-29T09:48:10.649Z,0.2773,0.0645,-0.2715
2026-01-29 16:48:11.166,2026-01-29T09:48:10.659Z,0.2930,0.0547,-0.3066
2026-01-29 16:48:11.166,2026-01-29T09:48:10.669Z,0.3164,0.0625,-0.3301
2026-01-29 16:48:11.166,2026-01-29T09:48:10.679Z,0.3477,0.1094,-0.3379
2026-01-29 16:48:11.194,2026-01-29T09:48:10.689Z,0.3633,0.1270,-0.3516
2026-01-29 16:48:11.225,2026-01-29T09:48:10.699Z,0.3867,0.1738,-0.3789
2026-01-29 16:48:11.227,2026-01-29T09:48:10.709Z,0.4160,0.2441,-0.3945
2026-01-29 16:48:11.228,2026-01-29T09:48:10.719Z,0.4355,0.3027,-0.4023
2026-01-29 16:48:11.228,2026-01-29T09:48:10.729Z,0.4570,0.3223,-0.4082
2026-01-29 16:48:11.228,2026-01-29T09:48:10.739Z,0.4688,0.3164,-0.4199
2026-01-29 16:48:11.255,2026-01-29T09:48:10.749Z,0.4902,0.2930,-0.4336
2026-01-29 16:48:11.257,2026-01-29T09:48:10.759Z,0.5195,0.2148,-0.4609
2026-01-29 16:48:11.257,2026-01-29T09:48:10.769Z,0.5352,0.1406,-0.5098
2026-01-29 16:48:11.285,2026-01-29T09:48:10.779Z,0.5625,0.1035,-0.5547
2026-01-29 16:48:11.287,2026-01-29T09:48:10.789Z,0.5820,0.1055,-0.5918
2026-01-29 16:48:11.287,2026-01-29T09:48:10.799Z,0.5996,0.1152,-0.6270
2026-01-29 16:48:11.315,2026-01-29T09:48:10.809Z,0.6367,0.1484,-0.6641
2026-01-29 16:48:11.317,2026-01-29T09:48:10.819Z,0.6895,0.1797,-0.6934
2026-01-29 16:48:11.318,2026-01-29T09:48:10.829Z,0.7305,0.2168,-0.7148
2026-01-29 16:48:11.345,2026-01-29T09:48:10.839Z,0.7559,0.2520,-0.7422
2026-01-29 16:48:11.346,2026-01-29T09:48:10.849Z,0.7812,0.2812,-0.8008
2026-01-29 16:48:11.346,2026-01-29T09:48:10.859Z,0.8145,0.2871,-0.8652
2026-01-29 16:48:11.375,2026-01-29T09:48:10.869Z,0.8242,0.3633,-0.9062
2026-01-29 16:48:11.377,2026-01-29T09:48:10.879Z,0.7891,0.4785,-0.9375
2026-01-29 16:48:11.377,2026-01-29T09:48:10.889Z,0.7383,0.5742,-1.0215
2026-01-29 16:48:11.405,2026-01-29T09:48:10.899Z,0.7285,0.6582,-1.1133
2026-01-29 16:48:11.407,2026-01-29T09:48:10.909Z,0.7383,0.7617,-1.1875
2026-01-29 16:48:11.407,2026-01-29T09:48:10.919Z,0.7578,0.7891,-1.2441
2026-01-29 16:48:11.435,2026-01-29T09:48:10.929Z,0.7402,0.7578,-1.2910
2026-01-29 16:48:11.437,2026-01-29T09:48:10.939Z,0.7129,0.7266,-1.3086
2026-01-29 16:48:11.437,2026-01-29T09:48:10.949Z,0.6777,0.5664,-1.3262
2026-01-29 16:48:11.466,2026-01-29T09:48:10.959Z,0.6445,0.3555,-1.3438
2026-01-29 16:48:11.468,2026-01-29T09:48:10.969Z,0.6016,0.1094,-1.3730
2026-01-29 16:48:11.468,2026-01-29T09:48:10.979Z,0.4883,-0.0195,-1.4082
2026-01-29 16:48:11.498,2026-01-29T09:48:10.989Z,0.4805,-0.0977,-1.3867
2026-01-29 16:48:11.499,2026-01-29T09:48:10.999Z,0.6133,-0.2910,-1.3359
2026-01-29 16:48:11.499,2026-01-29T09:48:11.009Z,0.6758,-0.2812,-1.1855
2026-01-29 16:48:11.528,2026-01-29T09:48:11.019Z,0.6250,-0.3691,-0.9727
2026-01-29 16:48:11.529,2026-01-29T09:48:11.029Z,0.4238,-0.5195,-0.7422
2026-01-29 16:48:11.529,2026-01-29T09:48:11.039Z,0.2109,-0.4883,-0.4414
2026-01-29 16:48:11.558,2026-01-29T09:48:11.049Z,0.0703,-0.3926,-0.1133
2026-01-29 16:48:11.558,2026-01-29T09:48:11.059Z,-0.0566,-0.4609,0.1562
2026-01-29 16:48:11.558,2026-01-29T09:48:11.069Z,-0.2051,-0.6074,0.3574
2026-01-29 16:48:11.585,2026-01-29T09:48:11.079Z,-0.3613,-0.7031,0.5215
2026-01-29 16:48:11.588,2026-01-29T09:48:11.089Z,-0.4648,-0.7344,0.6582
2026-01-29 16:48:11.588,2026-01-29T09:48:11.099Z,-0.4922,-0.8008,0.7793
2026-01-29 16:48:11.617,2026-01-29T09:48:11.109Z,-0.5020,-0.8691,0.9004
2026-01-29 16:48:11.618,2026-01-29T09:48:11.119Z,-0.5527,-0.8438,1.0645
2026-01-29 16:48:11.618,2026-01-29T09:48:11.129Z,-0.6230,-0.7344,1.2871
2026-01-29 16:48:11.675,2026-01-29T09:48:11.139Z,-0.6758,-0.5996,1.5195
2026-01-29 16:48:11.677,2026-01-29T09:48:11.149Z,-0.7207,-0.4512,1.7168
2026-01-29 16:48:11.677,2026-01-29T09:48:11.159Z,-0.7559,-0.3125,1.8574
2026-01-29 16:48:11.677,2026-01-29T09:48:11.169Z,-0.8203,-0.2148,1.9336
2026-01-29 16:48:11.678,2026-01-29T09:48:11.179Z,-0.9238,-0.1152,1.9707
2026-01-29 16:48:11.679,2026-01-29T09:48:11.189Z,-1.0547,-0.0605,1.9707
2026-01-29 16:48:11.707,2026-01-29T09:48:11.199Z,-1.1660,-0.1504,1.9590
2026-01-29 16:48:11.707,2026-01-29T09:48:11.209Z,-1.2324,-0.3711,1.9082
2026-01-29 16:48:11.707,2026-01-29T09:48:11.219Z,-1.2754,-0.5938,1.8242
2026-01-29 16:48:11.735,2026-01-29T09:48:11.229Z,-1.2617,-0.8574,1.7188
2026-01-29 16:48:11.736,2026-01-29T09:48:11.239Z,-1.1758,-0.8926,1.6465
2026-01-29 16:48:11.737,2026-01-29T09:48:11.249Z,-1.0195,-0.8379,1.5898
2026-01-29 16:48:11.768,2026-01-29T09:48:11.259Z,-0.9219,-0.6895,1.5098
2026-01-29 16:48:11.769,2026-01-29T09:48:11.269Z,-0.8379,-0.3398,1.4414
2026-01-29 16:48:11.769,2026-01-29T09:48:11.279Z,-0.7363,0.0801,1.3789
2026-01-29 16:48:11.797,2026-01-29T09:48:11.289Z,-0.6914,0.4805,1.3008
2026-01-29 16:48:11.797,2026-01-29T09:48:11.299Z,-0.7031,0.8008,1.2207
2026-01-29 16:48:11.797,2026-01-29T09:48:11.309Z,-0.7324,1.0371,1.1387
2026-01-29 16:48:11.825,2026-01-29T09:48:11.319Z,-0.7324,1.0664,1.0488
2026-01-29 16:48:11.826,2026-01-29T09:48:11.329Z,-0.7285,0.8711,0.9219
2026-01-29 16:48:11.826,2026-01-29T09:48:11.339Z,-0.7539,0.6289,0.8125
2026-01-29 16:48:11.916,2026-01-29T09:48:11.349Z,-0.7461,0.3008,0.7012
2026-01-29 16:48:11.948,2026-01-29T09:48:11.359Z,-0.7266,-0.0039,0.5957
2026-01-29 16:48:11.948,2026-01-29T09:48:11.369Z,-0.6914,-0.1797,0.5195
2026-01-29 16:48:11.949,2026-01-29T09:48:11.379Z,-0.5586,-0.2812,0.4492
2026-01-29 16:48:11.949,2026-01-29T09:48:11.389Z,-0.4258,-0.4043,0.3359
2026-01-29 16:48:11.949,2026-01-29T09:48:11.399Z,-0.3496,-0.4180,0.2559
2026-01-29 16:48:11.949,2026-01-29T09:48:11.409Z,-0.2520,-0.4258,0.2070
2026-01-29 16:48:11.950,2026-01-29T09:48:11.419Z,-0.1680,-0.4805,0.1172
2026-01-29 16:48:11.950,2026-01-29T09:48:11.429Z,-0.0918,-0.5254,0.0254
2026-01-29 16:48:11.952,2026-01-29T09:48:11.439Z,0.0137,-0.5664,-0.1055
2026-01-29 16:48:11.978,2026-01-29T09:48:11.449Z,0.1602,-0.5000,-0.2871
2026-01-29 16:48:11.978,2026-01-29T09:48:11.459Z,0.2949,-0.3750,-0.4297
2026-01-29 16:48:11.979,2026-01-29T09:48:11.469Z,0.4160,-0.3105,-0.4297
2026-01-29 16:48:11.979,2026-01-29T09:48:11.479Z,0.4766,-0.4531,-0.3008
2026-01-29 16:48:11.980,2026-01-29T09:48:11.489Z,0.3887,-0.4473,-0.0977
2026-01-29 16:48:12.007,2026-01-29T09:48:11.499Z,0.1465,-0.4121,-0.0410
2026-01-29 16:48:12.008,2026-01-29T09:48:11.509Z,-0.0508,-0.5859,-0.2109
2026-01-29 16:48:12.008,2026-01-29T09:48:11.519Z,-0.0195,-0.5371,-0.3047
2026-01-29 16:48:12.036,2026-01-29T09:48:11.529Z,0.0254,-0.3516,-0.2051
2026-01-29 16:48:12.037,2026-01-29T09:48:11.539Z,-0.0020,-0.0547,-0.1133
2026-01-29 16:48:12.069,2026-01-29T09:48:11.549Z,0.0176,0.2773,-0.1094
2026-01-29 16:48:12.070,2026-01-29T09:48:11.559Z,0.0801,0.5176,-0.1582
2026-01-29 16:48:12.070,2026-01-29T09:48:11.569Z,0.1582,0.6562,-0.1758
2026-01-29 16:48:12.070,2026-01-29T09:48:11.579Z,0.1504,0.6777,-0.1523
2026-01-29 16:48:12.098,2026-01-29T09:48:11.589Z,0.0664,0.6348,-0.1094
2026-01-29 16:48:12.128,2026-01-29T09:48:11.599Z,0.0352,0.4785,-0.0879
2026-01-29 16:48:12.128,2026-01-29T09:48:11.609Z,0.0371,0.2754,-0.1250
2026-01-29 16:48:12.131,2026-01-29T09:48:11.619Z,0.0176,0.1250,-0.1855
2026-01-29 16:48:12.131,2026-01-29T09:48:11.629Z,0.0098,-0.0430,-0.2324
2026-01-29 16:48:12.132,2026-01-29T09:48:11.639Z,-0.0059,-0.1855,-0.2676
2026-01-29 16:48:12.157,2026-01-29T09:48:11.649Z,0.0078,-0.2500,-0.2910
2026-01-29 16:48:12.158,2026-01-29T09:48:11.659Z,0.0254,-0.2949,-0.2832
2026-01-29 16:48:12.158,2026-01-29T09:48:11.669Z,0.0371,-0.2637,-0.2637
2026-01-29 16:48:12.185,2026-01-29T09:48:11.679Z,0.0371,-0.2617,-0.2637
2026-01-29 16:48:12.187,2026-01-29T09:48:11.689Z,0.0195,-0.2402,-0.2734
2026-01-29 16:48:12.187,2026-01-29T09:48:11.699Z,0.0332,-0.1816,-0.2695
2026-01-29 16:48:12.246,2026-01-29T09:48:11.709Z,0.0410,-0.1758,-0.2617
2026-01-29 16:48:12.248,2026-01-29T09:48:11.719Z,0.0566,-0.1348,-0.2441
2026-01-29 16:48:12.249,2026-01-29T09:48:11.729Z,0.0801,-0.0820,-0.2266
2026-01-29 16:48:12.249,2026-01-29T09:48:11.739Z,0.1035,-0.0039,-0.2285
2026-01-29 16:48:12.249,2026-01-29T09:48:11.749Z,0.1230,0.1367,-0.2090
2026-01-29 16:48:12.249,2026-01-29T09:48:11.759Z,0.1250,0.2285,-0.1660
2026-01-29 16:48:12.278,2026-01-29T09:48:11.769Z,0.1270,0.2363,-0.1445
2026-01-29 16:48:12.279,2026-01-29T09:48:11.779Z,0.1465,0.2715,-0.1230
2026-01-29 16:48:12.279,2026-01-29T09:48:11.789Z,0.1406,0.2812,-0.1055
2026-01-29 16:48:12.307,2026-01-29T09:48:11.799Z,0.1367,0.2617,-0.0859
2026-01-29 16:48:12.307,2026-01-29T09:48:11.809Z,0.1387,0.2227,-0.0820
2026-01-29 16:48:12.307,2026-01-29T09:48:11.819Z,0.1406,0.1523,-0.0898
2026-01-29 16:48:12.335,2026-01-29T09:48:11.829Z,0.1348,0.0742,-0.0938
2026-01-29 16:48:12.337,2026-01-29T09:48:11.839Z,0.1230,0.0195,-0.0742
2026-01-29 16:48:12.337,2026-01-29T09:48:11.849Z,0.1113,-0.0645,-0.0781
2026-01-29 16:48:12.365,2026-01-29T09:48:11.859Z,0.1035,-0.1152,-0.0898
2026-01-29 16:48:12.367,2026-01-29T09:48:11.869Z,0.1113,-0.0957,-0.0977
2026-01-29 16:48:12.367,2026-01-29T09:48:11.879Z,0.1289,-0.0469,-0.1113
2026-01-29 16:48:12.396,2026-01-29T09:48:11.889Z,0.1484,0.0098,-0.1328
2026-01-29 16:48:12.398,2026-01-29T09:48:11.899Z,0.1797,0.0703,-0.1406
2026-01-29 16:48:12.398,2026-01-29T09:48:11.909Z,0.2227,0.1406,-0.1562
2026-01-29 16:48:12.429,2026-01-29T09:48:11.919Z,0.2500,0.1680,-0.1777
2026-01-29 16:48:12.429,2026-01-29T09:48:11.929Z,0.2637,0.1523,-0.2246
2026-01-29 16:48:12.459,2026-01-29T09:48:11.939Z,0.2930,0.1738,-0.2617
2026-01-29 16:48:12.460,2026-01-29T09:48:11.949Z,0.3379,0.1738,-0.2930
2026-01-29 16:48:12.460,2026-01-29T09:48:11.959Z,0.3730,0.2148,-0.3203
2026-01-29 16:48:12.487,2026-01-29T09:48:11.969Z,0.4043,0.2910,-0.3535
2026-01-29 16:48:12.488,2026-01-29T09:48:11.979Z,0.4238,0.3223,-0.4004
2026-01-29 16:48:12.488,2026-01-29T09:48:11.989Z,0.4473,0.3223,-0.4453
2026-01-29 16:48:12.488,2026-01-29T09:48:11.999Z,0.4785,0.2949,-0.4805
2026-01-29 16:48:12.516,2026-01-29T09:48:12.009Z,0.5078,0.2285,-0.5195
2026-01-29 16:48:12.517,2026-01-29T09:48:12.019Z,0.5488,0.1602,-0.5703
2026-01-29 16:48:12.518,2026-01-29T09:48:12.029Z,0.5938,0.1328,-0.6230
2026-01-29 16:48:12.545,2026-01-29T09:48:12.039Z,0.6230,0.1309,-0.6641
2026-01-29 16:48:12.547,2026-01-29T09:48:12.049Z,0.6445,0.1504,-0.6836
2026-01-29 16:48:12.548,2026-01-29T09:48:12.059Z,0.6816,0.1758,-0.7109
2026-01-29 16:48:12.575,2026-01-29T09:48:12.069Z,0.7090,0.2246,-0.7422
2026-01-29 16:48:12.577,2026-01-29T09:48:12.079Z,0.7598,0.2832,-0.7773
2026-01-29 16:48:12.577,2026-01-29T09:48:12.089Z,0.7891,0.3555,-0.8086
2026-01-29 16:48:12.605,2026-01-29T09:48:12.099Z,0.8086,0.4785,-0.8086
2026-01-29 16:48:12.607,2026-01-29T09:48:12.109Z,0.8027,0.5645,-0.8027
2026-01-29 16:48:12.607,2026-01-29T09:48:12.119Z,0.7695,0.5684,-0.8203
2026-01-29 16:48:12.637,2026-01-29T09:48:12.129Z,0.7441,0.5410,-0.8594
2026-01-29 16:48:12.638,2026-01-29T09:48:12.139Z,0.7441,0.4961,-0.9336
2026-01-29 16:48:12.638,2026-01-29T09:48:12.149Z,0.7363,0.4785,-1.0293
2026-01-29 16:48:12.665,2026-01-29T09:48:12.159Z,0.7227,0.4922,-1.1250
2026-01-29 16:48:12.667,2026-01-29T09:48:12.169Z,0.7168,0.5449,-1.1914
2026-01-29 16:48:12.667,2026-01-29T09:48:12.179Z,0.7305,0.5527,-1.2422
2026-01-29 16:48:12.696,2026-01-29T09:48:12.189Z,0.7383,0.5234,-1.2402
2026-01-29 16:48:12.725,2026-01-29T09:48:12.199Z,0.7051,0.5391,-1.1934
2026-01-29 16:48:12.727,2026-01-29T09:48:12.209Z,0.6230,0.3164,-1.1602
2026-01-29 16:48:12.728,2026-01-29T09:48:12.219Z,0.5625,-0.1836,-1.2246
2026-01-29 16:48:12.728,2026-01-29T09:48:12.229Z,0.4258,-0.4766,-1.3066
2026-01-29 16:48:12.728,2026-01-29T09:48:12.239Z,0.2930,-0.4551,-1.2930
2026-01-29 16:48:12.785,2026-01-29T09:48:12.249Z,0.4902,-0.7598,-1.2891
2026-01-29 16:48:12.787,2026-01-29T09:48:12.259Z,0.6055,-0.7891,-1.1992
2026-01-29 16:48:12.815,2026-01-29T09:48:12.269Z,0.6445,-0.5059,-0.9277
2026-01-29 16:48:12.817,2026-01-29T09:48:12.279Z,0.5488,-0.3398,-0.6328
2026-01-29 16:48:12.818,2026-01-29T09:48:12.289Z,0.3867,-0.2031,-0.3145
2026-01-29 16:48:12.818,2026-01-29T09:48:12.299Z,0.2422,-0.1562,-0.0020
2026-01-29 16:48:12.818,2026-01-29T09:48:12.309Z,0.0488,-0.3398,0.2129
2026-01-29 16:48:12.819,2026-01-29T09:48:12.319Z,-0.1133,-0.5898,0.3926
2026-01-29 16:48:12.847,2026-01-29T09:48:12.329Z,-0.2227,-0.7617,0.5781
2026-01-29 16:48:12.848,2026-01-29T09:48:12.339Z,-0.3496,-0.8789,0.7520
2026-01-29 16:48:12.848,2026-01-29T09:48:12.349Z,-0.4570,-0.9824,0.8906
2026-01-29 16:48:12.848,2026-01-29T09:48:12.359Z,-0.5312,-1.0879,0.9902
2026-01-29 16:48:12.875,2026-01-29T09:48:12.369Z,-0.6289,-1.1074,1.0859
2026-01-29 16:48:12.877,2026-01-29T09:48:12.379Z,-0.7344,-0.9746,1.2188
2026-01-29 16:48:12.877,2026-01-29T09:48:12.389Z,-0.7949,-0.7266,1.3926
2026-01-29 16:48:12.905,2026-01-29T09:48:12.399Z,-0.8125,-0.4980,1.5391
2026-01-29 16:48:12.907,2026-01-29T09:48:12.409Z,-0.8223,-0.3867,1.6074
2026-01-29 16:48:12.907,2026-01-29T09:48:12.419Z,-0.8398,-0.2773,1.6465
2026-01-29 16:48:12.937,2026-01-29T09:48:12.429Z,-0.8984,-0.1562,1.6855
2026-01-29 16:48:12.938,2026-01-29T09:48:12.439Z,-0.9668,-0.1191,1.7402
2026-01-29 16:48:12.938,2026-01-29T09:48:12.449Z,-1.0215,-0.2031,1.7695
2026-01-29 16:48:12.967,2026-01-29T09:48:12.459Z,-1.0742,-0.2109,1.7891
2026-01-29 16:48:12.968,2026-01-29T09:48:12.469Z,-1.0742,-0.2148,1.7539
2026-01-29 16:48:12.968,2026-01-29T09:48:12.479Z,-1.0215,-0.2715,1.7051
2026-01-29 16:48:13.025,2026-01-29T09:48:12.489Z,-1.0215,-0.1719,1.6797
2026-01-29 16:48:13.027,2026-01-29T09:48:12.499Z,-0.9980,-0.0312,1.6738
2026-01-29 16:48:13.028,2026-01-29T09:48:12.509Z,-0.9648,0.1055,1.6328
2026-01-29 16:48:13.028,2026-01-29T09:48:12.519Z,-0.9473,0.2910,1.5703
2026-01-29 16:48:13.028,2026-01-29T09:48:12.529Z,-0.9629,0.4922,1.5059
2026-01-29 16:48:13.029,2026-01-29T09:48:12.539Z,-0.9453,0.5430,1.4336
2026-01-29 16:48:13.058,2026-01-29T09:48:12.549Z,-0.9043,0.4980,1.3516
2026-01-29 16:48:13.058,2026-01-29T09:48:12.559Z,-0.8828,0.4434,1.2461
2026-01-29 16:48:13.058,2026-01-29T09:48:12.569Z,-0.8672,0.3516,1.1211
2026-01-29 16:48:13.115,2026-01-29T09:48:12.579Z,-0.8574,0.3359,0.9922
2026-01-29 16:48:13.117,2026-01-29T09:48:12.589Z,-0.8184,0.3594,0.8867
2026-01-29 16:48:13.118,2026-01-29T09:48:12.599Z,-0.7344,0.3809,0.7695
2026-01-29 16:48:13.118,2026-01-29T09:48:12.609Z,-0.6426,0.3652,0.6484
2026-01-29 16:48:13.118,2026-01-29T09:48:12.619Z,-0.5449,0.3145,0.5391
2026-01-29 16:48:13.119,2026-01-29T09:48:12.629Z,-0.4766,0.1953,0.4531
2026-01-29 16:48:13.148,2026-01-29T09:48:12.639Z,-0.4082,0.0020,0.3965
2026-01-29 16:48:13.148,2026-01-29T09:48:12.649Z,-0.3164,-0.2969,0.3438
2026-01-29 16:48:13.148,2026-01-29T09:48:12.659Z,-0.2441,-0.5645,0.2695
2026-01-29 16:48:13.175,2026-01-29T09:48:12.669Z,-0.1836,-0.7480,0.1406
2026-01-29 16:48:13.177,2026-01-29T09:48:12.679Z,-0.1250,-0.8555,-0.0508
2026-01-29 16:48:13.177,2026-01-29T09:48:12.689Z,0.0020,-0.8516,-0.2324
2026-01-29 16:48:13.205,2026-01-29T09:48:12.699Z,0.2324,-0.7617,-0.3750
2026-01-29 16:48:13.207,2026-01-29T09:48:12.709Z,0.4609,-0.6543,-0.4688
2026-01-29 16:48:13.208,2026-01-29T09:48:12.719Z,0.5254,-0.6992,-0.4688
2026-01-29 16:48:13.235,2026-01-29T09:48:12.729Z,0.4102,-0.7480,-0.3379
2026-01-29 16:48:13.237,2026-01-29T09:48:12.739Z,0.1836,-0.5996,-0.1367
2026-01-29 16:48:13.237,2026-01-29T09:48:12.749Z,-0.0117,-0.3770,0.0000
2026-01-29 16:48:13.295,2026-01-29T09:48:12.759Z,-0.1172,-0.3105,-0.0352
2026-01-29 16:48:13.297,2026-01-29T09:48:12.769Z,-0.0664,-0.4609,-0.1543
2026-01-29 16:48:13.298,2026-01-29T09:48:12.779Z,-0.0039,-0.4883,-0.2480
2026-01-29 16:48:13.298,2026-01-29T09:48:12.789Z,0.0703,-0.2227,-0.2383
2026-01-29 16:48:13.298,2026-01-29T09:48:12.799Z,0.1484,0.2051,-0.1289
2026-01-29 16:48:13.299,2026-01-29T09:48:12.809Z,0.1367,0.5020,-0.0117
2026-01-29 16:48:13.328,2026-01-29T09:48:12.819Z,0.0273,0.6016,0.0508
2026-01-29 16:48:13.328,2026-01-29T09:48:12.829Z,-0.0508,0.6250,0.0879
2026-01-29 16:48:13.355,2026-01-29T09:48:12.839Z,-0.0430,0.6035,0.1152
2026-01-29 16:48:13.357,2026-01-29T09:48:12.849Z,0.0039,0.5488,0.1328
2026-01-29 16:48:13.358,2026-01-29T09:48:12.859Z,0.0195,0.4668,0.1602
2026-01-29 16:48:13.358,2026-01-29T09:48:12.869Z,-0.0527,0.3438,0.1621
2026-01-29 16:48:13.385,2026-01-29T09:48:12.879Z,-0.1016,0.1914,0.1211
2026-01-29 16:48:13.415,2026-01-29T09:48:12.889Z,-0.1152,0.0332,0.0625
2026-01-29 16:48:13.418,2026-01-29T09:48:12.899Z,-0.1211,0.0137,0.0449
2026-01-29 16:48:13.418,2026-01-29T09:48:12.909Z,-0.1348,0.0273,0.0645
2026-01-29 16:48:13.418,2026-01-29T09:48:12.919Z,-0.1621,-0.0293,0.0898
2026-01-29 16:48:13.418,2026-01-29T09:48:12.929Z,-0.1914,-0.0742,0.0762
2026-01-29 16:48:13.447,2026-01-29T09:48:12.939Z,-0.2031,-0.0156,0.0762
2026-01-29 16:48:13.448,2026-01-29T09:48:12.949Z,-0.1758,0.0371,0.0449
2026-01-29 16:48:13.448,2026-01-29T09:48:12.959Z,-0.1875,0.0449,0.0391
2026-01-29 16:48:13.475,2026-01-29T09:48:12.969Z,-0.1699,0.1582,0.0391
2026-01-29 16:48:13.477,2026-01-29T09:48:12.979Z,-0.1680,0.2812,0.0566
2026-01-29 16:48:13.477,2026-01-29T09:48:12.989Z,-0.1465,0.2598,0.0234
2026-01-29 16:48:13.505,2026-01-29T09:48:12.999Z,-0.1484,0.1758,0.0098
2026-01-29 16:48:13.507,2026-01-29T09:48:13.009Z,-0.1445,0.0664,-0.0156
2026-01-29 16:48:13.507,2026-01-29T09:48:13.019Z,-0.1504,-0.1328,-0.0273
2026-01-29 16:48:13.537,2026-01-29T09:48:13.029Z,-0.1504,-0.3203,-0.0605
2026-01-29 16:48:13.538,2026-01-29T09:48:13.039Z,-0.1602,-0.4727,-0.1035
2026-01-29 16:48:13.538,2026-01-29T09:48:13.049Z,-0.1406,-0.5215,-0.1621
2026-01-29 16:48:13.568,2026-01-29T09:48:13.059Z,-0.0938,-0.5488,-0.1543
2026-01-29 16:48:13.569,2026-01-29T09:48:13.069Z,-0.0586,-0.5137,-0.1309
2026-01-29 16:48:13.569,2026-01-29T09:48:13.079Z,-0.0117,-0.4902,-0.1602
2026-01-29 16:48:13.597,2026-01-29T09:48:13.089Z,0.0176,-0.5566,-0.2012
2026-01-29 16:48:13.598,2026-01-29T09:48:13.099Z,0.0293,-0.4238,-0.2109
2026-01-29 16:48:13.598,2026-01-29T09:48:13.109Z,0.0469,-0.4180,-0.1855
2026-01-29 16:48:13.657,2026-01-29T09:48:13.119Z,0.0957,-0.2461,-0.1816
2026-01-29 16:48:13.658,2026-01-29T09:48:13.129Z,0.1113,-0.1348,-0.1934
2026-01-29 16:48:13.658,2026-01-29T09:48:13.139Z,0.1328,0.0137,-0.2188
2026-01-29 16:48:13.658,2026-01-29T09:48:13.149Z,0.1582,0.1484,-0.2324
2026-01-29 16:48:13.659,2026-01-29T09:48:13.159Z,0.1758,0.1426,-0.2363
2026-01-29 16:48:13.659,2026-01-29T09:48:13.169Z,0.1895,0.1172,-0.2305
2026-01-29 16:48:13.689,2026-01-29T09:48:13.179Z,0.2012,0.0430,-0.2305
2026-01-29 16:48:13.689,2026-01-29T09:48:13.189Z,0.2090,-0.0508,-0.2461
2026-01-29 16:48:13.689,2026-01-29T09:48:13.199Z,0.2227,-0.0898,-0.2344
2026-01-29 16:48:13.718,2026-01-29T09:48:13.209Z,0.2344,-0.0645,-0.2266
2026-01-29 16:48:13.718,2026-01-29T09:48:13.219Z,0.2422,-0.0039,-0.2285
2026-01-29 16:48:13.718,2026-01-29T09:48:13.229Z,0.2383,0.1016,-0.2148
2026-01-29 16:48:13.775,2026-01-29T09:48:13.239Z,0.2344,0.1445,-0.2031
2026-01-29 16:48:13.777,2026-01-29T09:48:13.249Z,0.2363,0.1348,-0.2070
2026-01-29 16:48:13.777,2026-01-29T09:48:13.259Z,0.2383,0.0840,-0.2168
2026-01-29 16:48:13.805,2026-01-29T09:48:13.269Z,0.2383,0.0938,-0.2246
2026-01-29 16:48:13.807,2026-01-29T09:48:13.279Z,0.2402,0.1172,-0.2188
2026-01-29 16:48:13.808,2026-01-29T09:48:13.289Z,0.2578,0.1641,-0.2148
2026-01-29 16:48:13.808,2026-01-29T09:48:13.299Z,0.2734,0.2070,-0.2070
2026-01-29 16:48:13.809,2026-01-29T09:48:13.309Z,0.2754,0.2168,-0.1934
2026-01-29 16:48:13.809,2026-01-29T09:48:13.319Z,0.2852,0.1973,-0.1953
2026-01-29 16:48:13.839,2026-01-29T09:48:13.329Z,0.3105,0.2188,-0.1934
2026-01-29 16:48:13.839,2026-01-29T09:48:13.339Z,0.3184,0.2148,-0.1992
2026-01-29 16:48:13.839,2026-01-29T09:48:13.349Z,0.3301,0.2168,-0.2207
2026-01-29 16:48:13.868,2026-01-29T09:48:13.359Z,0.3496,0.2676,-0.2227
2026-01-29 16:48:13.868,2026-01-29T09:48:13.369Z,0.3574,0.3008,-0.2383
2026-01-29 16:48:13.868,2026-01-29T09:48:13.379Z,0.3848,0.3574,-0.2617
2026-01-29 16:48:13.895,2026-01-29T09:48:13.389Z,0.3984,0.4062,-0.2793
2026-01-29 16:48:13.897,2026-01-29T09:48:13.399Z,0.4141,0.3984,-0.2969
2026-01-29 16:48:13.897,2026-01-29T09:48:13.409Z,0.4395,0.3711,-0.3242
2026-01-29 16:48:13.925,2026-01-29T09:48:13.419Z,0.4707,0.3418,-0.3379
2026-01-29 16:48:13.927,2026-01-29T09:48:13.429Z,0.4824,0.3164,-0.3477
2026-01-29 16:48:13.927,2026-01-29T09:48:13.439Z,0.5000,0.3066,-0.3770
2026-01-29 16:48:13.955,2026-01-29T09:48:13.449Z,0.5273,0.3066,-0.4102
2026-01-29 16:48:13.957,2026-01-29T09:48:13.459Z,0.5430,0.3301,-0.4395
2026-01-29 16:48:13.957,2026-01-29T09:48:13.469Z,0.5898,0.3438,-0.4785
2026-01-29 16:48:13.986,2026-01-29T09:48:13.479Z,0.6406,0.3730,-0.5137
2026-01-29 16:48:13.988,2026-01-29T09:48:13.489Z,0.6855,0.3887,-0.5449
2026-01-29 16:48:13.988,2026-01-29T09:48:13.499Z,0.7363,0.4414,-0.5938
2026-01-29 16:48:14.018,2026-01-29T09:48:13.509Z,0.7500,0.6016,-0.6270
2026-01-29 16:48:14.018,2026-01-29T09:48:13.519Z,0.7793,0.7461,-0.6523
2026-01-29 16:48:14.018,2026-01-29T09:48:13.529Z,0.7852,0.8477,-0.7051
2026-01-29 16:48:14.046,2026-01-29T09:48:13.539Z,0.7949,0.9727,-0.7383
2026-01-29 16:48:14.048,2026-01-29T09:48:13.549Z,0.7988,1.0508,-0.7891
2026-01-29 16:48:14.048,2026-01-29T09:48:13.559Z,0.7539,1.0273,-0.8398
2026-01-29 16:48:14.077,2026-01-29T09:48:13.569Z,0.6953,0.9629,-0.8750
2026-01-29 16:48:14.077,2026-01-29T09:48:13.579Z,0.6562,0.8770,-0.9258
2026-01-29 16:48:14.079,2026-01-29T09:48:13.589Z,0.6445,0.8301,-0.9609
2026-01-29 16:48:14.137,2026-01-29T09:48:13.599Z,0.6348,0.7578,-0.9727
2026-01-29 16:48:14.138,2026-01-29T09:48:13.609Z,0.5859,0.6543,-0.9824
2026-01-29 16:48:14.138,2026-01-29T09:48:13.619Z,0.5215,0.6016,-0.9824
2026-01-29 16:48:14.138,2026-01-29T09:48:13.629Z,0.4648,0.5352,-0.9531
2026-01-29 16:48:14.138,2026-01-29T09:48:13.639Z,0.4395,0.4180,-0.9180
2026-01-29 16:48:14.141,2026-01-29T09:48:13.649Z,0.4297,0.3105,-0.8906
2026-01-29 16:48:14.196,2026-01-29T09:48:13.659Z,0.4082,0.1797,-0.8672
2026-01-29 16:48:14.225,2026-01-29T09:48:13.669Z,0.3672,0.0137,-0.8730
2026-01-29 16:48:14.285,2026-01-29T09:48:13.679Z,0.3613,-0.0820,-0.8633
2026-01-29 16:48:14.315,2026-01-29T09:48:13.689Z,0.4004,-0.2031,-0.8340
2026-01-29 16:48:14.317,2026-01-29T09:48:13.699Z,0.3965,-0.3145,-0.8027
2026-01-29 16:48:14.318,2026-01-29T09:48:13.709Z,0.4219,-0.3438,-0.7500
2026-01-29 16:48:14.318,2026-01-29T09:48:13.719Z,0.4531,-0.3184,-0.6934
2026-01-29 16:48:14.318,2026-01-29T09:48:13.729Z,0.4531,-0.2910,-0.6543
2026-01-29 16:48:14.319,2026-01-29T09:48:13.739Z,0.4453,-0.2441,-0.6230
2026-01-29 16:48:14.319,2026-01-29T09:48:13.749Z,0.4512,-0.1543,-0.6016
2026-01-29 16:48:14.319,2026-01-29T09:48:13.759Z,0.4531,-0.0547,-0.5684
2026-01-29 16:48:14.321,2026-01-29T09:48:13.769Z,0.4883,-0.0332,-0.5605
2026-01-29 16:48:14.348,2026-01-29T09:48:13.779Z,0.5000,-0.0977,-0.5703
2026-01-29 16:48:14.377,2026-01-29T09:48:13.789Z,0.4609,-0.1699,-0.5820
2026-01-29 16:48:14.405,2026-01-29T09:48:13.799Z,0.3887,-0.2754,-0.5840
2026-01-29 16:48:14.407,2026-01-29T09:48:13.809Z,0.2441,-0.3535,-0.5488
2026-01-29 16:48:14.408,2026-01-29T09:48:13.819Z,0.1504,-0.2832,-0.4375
2026-01-29 16:48:14.497,2026-01-29T09:48:13.829Z,0.1445,-0.1172,-0.2617
2026-01-29 16:48:14.498,2026-01-29T09:48:13.839Z,0.1582,-0.0078,-0.1055
2026-01-29 16:48:14.527,2026-01-29T09:48:13.849Z,0.1230,0.0488,0.0371
2026-01-29 16:48:14.528,2026-01-29T09:48:13.859Z,0.0508,0.0293,0.1562
2026-01-29 16:48:14.528,2026-01-29T09:48:13.869Z,-0.0566,-0.1094,0.2246
2026-01-29 16:48:14.555,2026-01-29T09:48:13.879Z,-0.1953,-0.2871,0.2715
2026-01-29 16:48:14.557,2026-01-29T09:48:13.889Z,-0.3105,-0.4766,0.3301
2026-01-29 16:48:14.558,2026-01-29T09:48:13.899Z,-0.4043,-0.6445,0.3984
2026-01-29 16:48:14.558,2026-01-29T09:48:13.909Z,-0.4980,-0.7910,0.4727
2026-01-29 16:48:14.558,2026-01-29T09:48:13.919Z,-0.5781,-0.8535,0.5762
2026-01-29 16:48:14.559,2026-01-29T09:48:13.929Z,-0.6016,-0.8047,0.6895
2026-01-29 16:48:14.559,2026-01-29T09:48:13.939Z,-0.5977,-0.6914,0.8105
2026-01-29 16:48:14.559,2026-01-29T09:48:13.949Z,-0.5996,-0.5586,0.9219
2026-01-29 16:48:14.561,2026-01-29T09:48:13.959Z,-0.6152,-0.3984,1.0391
2026-01-29 16:48:14.588,2026-01-29T09:48:13.969Z,-0.6250,-0.2305,1.1582
2026-01-29 16:48:14.588,2026-01-29T09:48:13.979Z,-0.6426,-0.1562,1.2656
2026-01-29 16:48:14.588,2026-01-29T09:48:13.989Z,-0.6680,-0.1562,1.3594
2026-01-29 16:48:14.589,2026-01-29T09:48:14.019Z,-0.8926,-0.3965,1.5391
2026-01-29 16:48:14.589,2026-01-29T09:48:14.029Z,-0.9277,-0.4707,1.6016
2026-01-29 16:48:14.589,2026-01-29T09:48:14.039Z,-0.9062,-0.6289,1.6328
2026-01-29 16:48:14.589,2026-01-29T09:48:14.049Z,-0.8809,-0.7598,1.6230
2026-01-29 16:48:14.618,2026-01-29T09:48:14.059Z,-0.8633,-0.8652,1.6094
2026-01-29 16:48:14.619,2026-01-29T09:48:14.069Z,-0.8477,-0.9590,1.5742
2026-01-29 16:48:14.648,2026-01-29T09:48:14.079Z,-0.8223,-0.8809,1.5586
2026-01-29 16:48:14.648,2026-01-29T09:48:14.089Z,-0.7539,-0.7539,1.5254
2026-01-29 16:48:14.649,2026-01-29T09:48:14.099Z,-0.6719,-0.5859,1.4648
2026-01-29 16:48:14.649,2026-01-29T09:48:14.109Z,-0.5566,-0.3340,1.4355
2026-01-29 16:48:14.649,2026-01-29T09:48:14.119Z,-0.4902,-0.1855,1.3965
2026-01-29 16:48:14.649,2026-01-29T09:48:14.129Z,-0.5039,-0.1289,1.3418
2026-01-29 16:48:14.650,2026-01-29T09:48:14.139Z,-0.5371,-0.2266,1.2227
2026-01-29 16:48:14.650,2026-01-29T09:48:14.149Z,-0.5898,-0.3750,1.0586
2026-01-29 16:48:14.652,2026-01-29T09:48:14.159Z,-0.5879,-0.5410,0.8672
2026-01-29 16:48:14.677,2026-01-29T09:48:14.169Z,-0.5098,-0.6660,0.6406
2026-01-29 16:48:14.705,2026-01-29T09:48:14.179Z,-0.3750,-0.7285,0.3926
2026-01-29 16:48:14.707,2026-01-29T09:48:14.189Z,-0.2363,-0.7422,0.1504
2026-01-29 16:48:14.708,2026-01-29T09:48:14.199Z,-0.1406,-0.6484,-0.0449
2026-01-29 16:48:14.708,2026-01-29T09:48:14.209Z,-0.0879,-0.4766,-0.1875
2026-01-29 16:48:14.711,2026-01-29T09:48:14.219Z,-0.0625,-0.2383,-0.2734
2026-01-29 16:48:14.738,2026-01-29T09:48:14.229Z,-0.0176,0.0488,-0.3223
2026-01-29 16:48:14.739,2026-01-29T09:48:14.239Z,0.0684,0.3477,-0.3379
2026-01-29 16:48:14.769,2026-01-29T09:48:14.249Z,0.1074,0.5957,-0.2773
2026-01-29 16:48:14.770,2026-01-29T09:48:14.259Z,0.0996,0.6719,-0.1348
2026-01-29 16:48:14.770,2026-01-29T09:48:14.269Z,0.0508,0.6543,0.0312
2026-01-29 16:48:14.770,2026-01-29T09:48:14.279Z,0.0059,0.5352,0.1172
2026-01-29 16:48:14.856,2026-01-29T09:48:14.289Z,0.0020,0.2754,0.0801
2026-01-29 16:48:14.857,2026-01-29T09:48:14.299Z,0.0605,-0.0410,-0.0312
2026-01-29 16:48:14.858,2026-01-29T09:48:14.309Z,0.1035,-0.2754,-0.1758
2026-01-29 16:48:14.858,2026-01-29T09:48:14.319Z,0.0645,-0.2168,-0.2441
2026-01-29 16:48:14.858,2026-01-29T09:48:14.329Z,0.0508,0.0215,-0.1777
2026-01-29 16:48:14.859,2026-01-29T09:48:14.339Z,0.0488,0.2246,-0.0605
2026-01-29 16:48:14.859,2026-01-29T09:48:14.349Z,-0.0332,0.3281,0.0039
2026-01-29 16:48:14.859,2026-01-29T09:48:14.359Z,-0.1289,0.4551,0.0410
2026-01-29 16:48:14.861,2026-01-29T09:48:14.369Z,-0.0898,0.5898,0.0645
2026-01-29 16:48:14.888,2026-01-29T09:48:14.379Z,0.0293,0.6113,0.0820
2026-01-29 16:48:14.888,2026-01-29T09:48:14.389Z,0.0371,0.5566,0.1055
2026-01-29 16:48:14.888,2026-01-29T09:48:14.399Z,-0.0605,0.3730,0.1113
2026-01-29 16:48:14.916,2026-01-29T09:48:14.409Z,-0.1172,0.1914,0.0938
2026-01-29 16:48:14.917,2026-01-29T09:48:14.419Z,-0.1172,0.0625,0.0332
2026-01-29 16:48:14.917,2026-01-29T09:48:14.429Z,-0.0879,-0.1035,-0.0020
2026-01-29 16:48:14.945,2026-01-29T09:48:14.439Z,-0.0938,-0.4336,-0.0293
2026-01-29 16:48:14.947,2026-01-29T09:48:14.449Z,-0.1504,-0.6152,-0.0352
2026-01-29 16:48:14.947,2026-01-29T09:48:14.459Z,-0.2324,-0.6309,-0.0898
2026-01-29 16:48:14.975,2026-01-29T09:48:14.469Z,-0.2090,-0.5859,-0.1602
2026-01-29 16:48:14.977,2026-01-29T09:48:14.479Z,-0.1387,-0.5547,-0.2012
2026-01-29 16:48:14.978,2026-01-29T09:48:14.489Z,-0.1191,-0.5117,-0.2188
2026-01-29 16:48:15.005,2026-01-29T09:48:14.499Z,-0.1230,-0.4512,-0.1797
2026-01-29 16:48:15.008,2026-01-29T09:48:14.509Z,-0.1270,-0.4121,-0.1484
2026-01-29 16:48:15.008,2026-01-29T09:48:14.519Z,-0.0859,-0.3691,-0.1660
2026-01-29 16:48:15.039,2026-01-29T09:48:14.529Z,-0.0371,-0.2734,-0.2051
2026-01-29 16:48:15.040,2026-01-29T09:48:14.539Z,0.0137,-0.0703,-0.2051
2026-01-29 16:48:15.040,2026-01-29T09:48:14.549Z,0.0469,0.1074,-0.1562
2026-01-29 16:48:15.073,2026-01-29T09:48:14.559Z,0.0605,0.2031,-0.1211
2026-01-29 16:48:15.074,2026-01-29T09:48:14.569Z,0.0801,0.2656,-0.1133
2026-01-29 16:48:15.074,2026-01-29T09:48:14.579Z,0.1133,0.2891,-0.1191
2026-01-29 16:48:15.095,2026-01-29T09:48:14.589Z,0.1465,0.2793,-0.1152
2026-01-29 16:48:15.097,2026-01-29T09:48:14.599Z,0.1680,0.2715,-0.1055
2026-01-29 16:48:15.098,2026-01-29T09:48:14.609Z,0.1973,0.2598,-0.0898
2026-01-29 16:48:15.126,2026-01-29T09:48:14.619Z,0.2109,0.2148,-0.0977
2026-01-29 16:48:15.127,2026-01-29T09:48:14.629Z,0.2012,0.1172,-0.1211
2026-01-29 16:48:15.127,2026-01-29T09:48:14.639Z,0.1973,0.0176,-0.1523
2026-01-29 16:48:15.155,2026-01-29T09:48:14.649Z,0.1914,-0.0527,-0.1699
2026-01-29 16:48:15.157,2026-01-29T09:48:14.659Z,0.1914,-0.0508,-0.1875
